t,ax,ay,az
2.802596928649634e-45,0.0,0.0,0.0
0.0,0.0,0.0,0.0
1.7492031393022833e+24,0.0,2.802596928649634e-45,0.0
-1.6774300925578674e-28,2.350731372833252,-2.8076071051117883e-21,2.2507221698760986
-4240581853184.0,-2.1799423694610596,1.7492117862135679e+24,0.0
2.802596928649634e-45,0.0,-0.0014244912890717387,-1.9389947652816772
-7.560129007058062e-20,2.5695812702178955,-4.3239948414976544e-35,-2.3438003063201904
1.7492204331248524e+24,0.0,2.802596928649634e-45,0.0
2.0763207501716534e-36,-1.8642908334732056,-1.7892228236490398e+22,2.6214609146118164
9.595203633609292e+23,-2.3334567546844482,1.749229080036137e+24,0.0
2.802596928649634e-45,0.0,-2.4663197355227373e-36,1.6865897178649902
12.062209129333496,2.664935827255249,-3.7998755661551502e+28,-2.326735734939575
1.7492377269474215e+24,0.0,2.802596928649634e-45,0.0
-4.627248678523943e-39,1.7666618824005127,-6.2559028662410754e-18,2.696108341217041
3.561670484901062e-21,-2.4127402305603027,1.749246373858706e+24,0.0
2.802596928649634e-45,0.0,8.205647935935367e-27,-2.1353490352630615
-1800733065216.0,2.7125675678253174,-3.858010702002183e-19,-2.247299909591675
1.7492550207699906e+24,0.0,2.802596928649634e-45,0.0
5.1529316810358784e+17,-2.1273670196533203,1.2821662377216836e+19,2.7419004440307617
-3.297687541169949e-35,-2.206181049346924,1.7492646764875917e+24,0.0
2.802596928649634e-45,0.0,-0.041115306317806244,2.013650417327881
4.934298090120137e-07,2.7360172271728516,4.632699433528296e+34,-2.3828673362731934
1.7492733233988762e+24,0.0,2.802596928649634e-45,0.0
-5.381748451327439e-07,1.8100203275680542,9.718640011318514e-27,2.7297067642211914
1.0065342111293652e-33,-2.3133602142333984,1.749282114425349e+24,0.0
2.802596928649634e-45,0.0,0.0,0.0
0.0,0.0,0.0,0.0
1.7494384794044112e+24,0.0,2.802596928649634e-45,0.0
0.0,0.0,0.0,0.0
0.0,0.0,1.7494471263156957e+24,0.0
2.802596928649634e-45,0.0,8.283241727464785e-28,2.463620662689209
6.511468663265034e+17,2.8602843284606934,3.4364693419774994e-06,-1.9043933153152466
1.7494557732269803e+24,0.0,2.802596928649634e-45,0.0
6.5252263187803535e+22,1.6956045627593994,-3.6862499719347852e-09,2.8510329723358154
1.358800658861392e+18,-2.106412649154663,1.749464564253453e+24,0.0
2.802596928649634e-45,0.0,0.0,0.0
0.0,0.0,0.0,0.0
1.7494732111647375e+24,0.0,2.802596928649634e-45,0.0
8385960960.0,-2.280933380126953,-1.9047731447674465e-10,2.867079257965088
-3.032518680612384e-09,-2.0295357704162598,1.749481858076022e+24,0.0
2.802596928649634e-45,0.0,0.0,0.0
0.0,0.0,0.0,0.0
1.7494905049873066e+24,0.0,2.802596928649634e-45,0.0
0.00027964479522779584,-2.1060867309570312,-4.3990345352898345e+26,2.512117862701416
-1.8381684334514226e-15,-2.3296141624450684,1.749499151898591e+24,0.0
2.802596928649634e-45,0.0,-3928531712.0,1.7248448133468628
6.930069408783615e-16,2.069221258163452,1.8197358223497696e-29,-2.272174596786499
1.7496235233059006e+24,0.0,2.802596928649634e-45,0.0
1.4317156319568967e-30,-1.6731128692626953,1.8115585946397999e-29,1.9575698375701904
-2278190240235520.0,-2.1619551181793213,1.7496919780202366e+24,0.0
2.802596928649634e-45,0.0,0.0,0.0
0.0,0.0,0.0,0.0
1.749983378930526e+24,0.0,2.802596928649634e-45,0.0
-1.20392329320614e+25,2.4363908767700195,1.2610985515107871e-17,2.5471038818359375
-2.275407187327058e+17,-2.412792205810547,1.7499920258418105e+24,0.0
2.802596928649634e-45,0.0,1.449514389038086,1.8380498886108398
-4.244285020616414e+27,2.0748226642608643,1725.1151123046875,-2.33246111869812
1.7500183989212284e+24,0.0,2.802596928649634e-45,0.0
0.0009698979556560516,1.7015999555587769,3.1214508047335424e+16,1.9800620079040527
-5.071935756227401e-30,-2.33767032623291,1.7500635069750962e+24,0.0
2.802596928649634e-45,0.0,-1.732318310625128e-33,1.9156017303466797
-1.3754277006228222e-06,2.2148091793060303,5.89816045468591e-33,-1.9947689771652222
1.7500721538863807e+24,0.0,2.802596928649634e-45,0.0
4.99667647261068e-16,2.3044321537017822,3.3440236904233592e+25,2.4600656032562256
4.7921307670311146e-32,-2.0379488468170166,1.7500809449128533e+24,0.0
2.802596928649634e-45,0.0,-3960797396992.0,2.0808541774749756
-1.3529957762740163e+29,2.6515798568725586,-9.974273350814158e-23,-2.0407068729400635
1.750089591824138e+24,0.0,2.802596928649634e-45,0.0
0.0,0.0,0.0,0.0
0.0,0.0,1.7500982387354224e+24,0.0
2.802596928649634e-45,0.0,-6.41496467590332,2.061171293258667
3.250455460346302e-12,2.7981514930725098,7.865666885217404e+24,-2.2549116611480713
1.750106885646707e+24,0.0,2.802596928649634e-45,0.0
5.722006449584885e+32,-1.8156296014785767,-487642496.0,2.788520574569702
-2.4640622324863223e-36,-2.096202850341797,1.7501155325579915e+24,0.0
2.802596928649634e-45,0.0,-5.100419245518954e-38,-1.9048168659210205
8.378298359254377e-21,2.7712478637695312,-1.4276179503050148e+29,-2.0277469158172607
1.750124179469276e+24,0.0,2.802596928649634e-45,0.0
-3.145778751237099e+22,-1.6515617370605469,2.9781400011330416e-21,2.0737874507904053
5.909161282450443e+25,-1.999570369720459,1.7501395997944002e+24,0.0
2.802596928649634e-45,0.0,1.5447317836220047e-14,1.8754925727844238
7.729660467096736e+33,2.242089033126831,-8.371805962214888e+33,-2.07059907913208
1.7501482467056848e+24,0.0,2.802596928649634e-45,0.0
6.162661552429199,1.8626443147659302,1485589593456640.0,2.188434600830078
-0.004647287540137768,-2.0429139137268066,1.7501568936169693e+24,0.0
2.802596928649634e-45,0.0,-1.2376430387407488e-18,1.648785948753357
-26698.416015625,2.201202869415283,9.594892764965175e-16,-2.0277762413024902
1.750165540528254e+24,0.0,2.802596928649634e-45,0.0
-6.0918138506020235e+29,1.8895020484924316,40461.328125,2.166959047317505
2342.8193359375,-1.9907513856887817,1.7501741874395384e+24,0.0
2.802596928649634e-45,0.0,5.943762301478102e+26,1.8746769428253174
42.469120025634766,2.1874825954437256,9.634163130835133e+32,-1.9873285293579102
1.750182834350823e+24,0.0,2.802596928649634e-45,0.0
3.9090881642778186e-09,1.8596113920211792,-4.78095451410955e+19,2.181241512298584
1.1259740325473285e-36,-2.046753168106079,1.7501914812621075e+24,0.0
2.802596928649634e-45,0.0,-1.3909091095453894e-27,1.9186853170394897
5.24990660274578e+20,2.1616344451904297,-1.723722850659782e+20,-2.0522499084472656
1.750200128173392e+24,0.0,2.802596928649634e-45,0.0
1.0962888352277786e-23,-1.7701307535171509,3.186364811327173e-27,2.1796154975891113
1.0821907636682226e-07,-1.9919785261154175,1.7502087750846766e+24,0.0
2.802596928649634e-45,0.0,5.545427137687772e-30,-1.9044263362884521
10775790592.0,2.195406675338745,6.975740226926671e+35,-2.018129825592041
1.7502337070122137e+24,0.0,2.802596928649634e-45,0.0
4.784718719833357e-18,-1.8150190114974976,-1.517857783905896e-10,2.2111892700195312
8.779502190683227e+30,-1.991052269935608,1.7502423539234983e+24,0.0
2.802596928649634e-45,0.0,-7.317861876395474e-24,1.9080452919006348
6.0101552976003334e+19,2.171265125274658,-1.0078253336043286e-12,-1.9615874290466309
1.7502510008347828e+24,0.0,2.802596928649634e-45,0.0
-3.8806990774269574e+32,1.9365507364273071,-2.4129981798528242e+29,2.165501594543457
-2.1267798682855244e-33,-2.0793814659118652,1.7502743474952511e+24,0.0
2.802596928649634e-45,0.0,3.617047302698775e-19,1.8523589372634888
2.592833877889985e+38,2.131206512451172,2.4809849024973887e+21,-2.0563437938690186
1.750291208972256e+24,0.0,2.802596928649634e-45,0.0
0.0,0.0,0.0,0.0
0.0,0.0,1.7503037469936186e+24,0.0
2.802596928649634e-45,0.0,-1.3442925530204797e-27,-1.84969162940979
-9.109905323086316e+17,2.103769063949585,-1.366512736300507e-10,-2.028447389602661
1.7503123939049032e+24,0.0,2.802596928649634e-45,0.0
-1.0665402120462722e-18,-1.8845422267913818,5.601671943372532e+35,2.110443592071533
2.088541213106889e+31,-2.0243289470672607,1.7503354523349953e+24,0.0
2.802596928649634e-45,0.0,-5.236494103302404e+31,1.8662670850753784
-5.897764098303355e-27,2.1500229835510254,2.1537177333053706e-35,-2.0911004543304443
1.7503440992462799e+24,0.0,2.802596928649634e-45,0.0
-9.096457334476804e-23,1.913319706916809,4.941337561348291e-09,2.2281181812286377
1.0019469282029903e-10,-2.0815343856811523,1.7503527461575644e+24,0.0
2.802596928649634e-45,0.0,4.95457238161172e-39,2.4024946689605713
-5.192988634903031e+32,2.266601800918579,9.758171081542969,-2.0771875381469727
1.750361393068849e+24,0.0,2.802596928649634e-45,0.0
1.4282288551330566,2.0238966941833496,4.511895179748535,2.2740085124969482
2.647427861299896e+30,-2.088688850402832,1.7503700399801335e+24,0.0
2.802596928649634e-45,0.0,0.0,0.0
0.0,0.0,0.0,0.0
1.750378686891418e+24,0.0,2.802596928649634e-45,0.0
2.371917335851172e+17,2.111198663711548,7.799879853109815e-08,2.0175869464874268
-3.0810266507978966e-28,-2.042559862136841,1.7503873338027026e+24,0.0
2.802596928649634e-45,0.0,-3.4161090783771866e+31,1.8326706886291504
7.545503419574984e+28,2.107497215270996,8.47845159956619e-35,-2.014554977416992
1.75042048029596e+24,0.0,2.802596928649634e-45,0.0
1.4139925088745352e+24,1.9550681114196777,8.480491244683638e+36,2.1375463008880615
4.2292501745206615e+29,-2.1321935653686523,1.7504295595528088e+24,0.0
2.802596928649634e-45,0.0,-1889317289984.0,2.033046007156372
2.573286205869978e-38,2.1315228939056396,-7.507423388157954e-32,-2.0646705627441406
1.7504382064640934e+24,0.0,2.802596928649634e-45,0.0
0.2791599929332733,2.098524332046509,-2.9023465742774264e-27,2.2949633598327637
2.578771069191293e+38,-2.0470802783966064,1.750446853375378e+24,0.0
2.802596928649634e-45,0.0,0.0,0.0
0.0,0.0,0.0,0.0
1.7504555002866625e+24,0.0,2.802596928649634e-45,0.0
0.0,0.0,0.0,0.0
0.0,0.0,1.750464147197947e+24,0.0
2.802596928649634e-45,0.0,0.0,0.0
0.0,0.0,0.0,0.0
1.7504729382244197e+24,0.0,2.802596928649634e-45,0.0
0.0,0.0,0.0,0.0
0.0,0.0,1.7504815851357042e+24,0.0
2.802596928649634e-45,0.0,0.0,0.0
0.0,0.0,0.0,0.0
1.750490808507741e+24,0.0,2.802596928649634e-45,0.0
0.0,0.0,0.0,0.0
0.0,0.0,1.7504995995342137e+24,0.0
2.802596928649634e-45,0.0,0.0,0.0
0.0,0.0,0.0,0.0
1.7505083905606863e+24,0.0,2.802596928649634e-45,0.0
0.0,0.0,0.0,0.0
0.0,0.0,1.750517037471971e+24,0.0
2.802596928649634e-45,0.0,0.0,0.0
0.0,0.0,0.0,0.0
1.7505256843832554e+24,0.0,2.802596928649634e-45,0.0
0.0,0.0,0.0,0.0
0.0,0.0,1.750536204791985e+24,0.0
2.802596928649634e-45,0.0,3.9835662841796875,1.2952581644058228
-9.067815282625661e+30,2.8451762199401855,-8.925014327015144e-33,-2.301513195037842
1.7505448517032695e+24,0.0,2.802596928649634e-45,0.0
0.024600565433502197,1.9266290664672852,-1.3856720404350348e-14,2.2673373222351074
2.290678309845579e+28,-2.1267731189727783,1.7505536427297421e+24,0.0
2.802596928649634e-45,0.0,1.7077697564056072e+27,2.0815279483795166
1.0984733127987287e-18,1.944506049156189,-3.6402681144345184e+37,-2.0413262844085693
1.7505622896410267e+24,0.0,2.802596928649634e-45,0.0
1.2110349465450408e+28,2.116158962249756,916822241050624.0,2.1251060962677
1.6323677982654772e-06,-2.2384579181671143,1.7505710806674993e+24,0.0
2.802596928649634e-45,0.0,-6.208435836946481e+18,2.122530937194824
-2.4853525553435383e-19,2.037083387374878,-1.1856824109415717e+36,-2.2270665168762207
1.750579727578784e+24,0.0,2.802596928649634e-45,0.0
-106204.5390625,2.1070826053619385,2.6490015998632096e+37,2.124217987060547
1459798016000.0,-2.0959739685058594,1.7506167651821194e+24,0.0
2.802596928649634e-45,0.0,2.5704571296012845e-20,1.6722253561019897
2358694912.0,2.0848159790039062,30.51608657836914,-2.341224193572998
1.750625412093404e+24,0.0,2.802596928649634e-45,0.0
5.594177723170816e+17,-1.5426212549209595,5.489477635704302e-19,2.1500961780548096
-2.208869166264301e+29,-2.3277359008789062,1.7506412647640923e+24,0.0
2.802596928649634e-45,0.0,-2.398325299458635e+25,1.863454818725586
-100178.3203125,2.2308530807495117,-105633193918464.0,-2.26934814453125
1.7506499116753768e+24,0.0,2.802596928649634e-45,0.0
-2.626234507641101e-10,1.8391261100769043,-1.7276211918935573e-37,2.447319507598877
-8.282633837020891e+26,-2.3025083541870117,1.7506585585866614e+24,0.0
2.802596928649634e-45,0.0,-0.987677812576294,2.296948194503784
-4.3184942540101976e-36,2.448071002960205,3.412364034946134e+24,-2.3034260272979736
1.750667205497946e+24,0.0,2.802596928649634e-45,0.0
-1204405632.0,2.2928316593170166,1.1912793591628695e-31,2.609241008758545
1.674633059549855e+31,-2.28238582611084,1.7506758524092305e+24,0.0
0.0,0.0,0.0,0.0
0.0,0.0,0.0,0.0
1.7770114618782124e+24,0.0,1.401298464324817e-45,0.0
0.0,0.0,0.0,0.0
0.0,0.0,1.777012614799717e+24,0.0
0.0,0.0,0.0,0.0
0.0,0.0,0.0,0.0
1.7770208293654373e+24,0.0,1.401298464324817e-45,0.0
0.0,0.0,0.0,0.0
0.0,0.0,1.777021982286942e+24,0.0
0.0,0.0,0.0,0.0
0.0,0.0,0.0,0.0
1.7770300527374742e+24,0.0,1.401298464324817e-45,0.0
0.0,0.0,0.0,0.0
0.0,0.0,1.7770312056589788e+24,0.0
0.0,0.0,0.0,0.0
0.0,0.0,0.0,0.0
1.777039420224699e+24,0.0,1.401298464324817e-45,0.0
0.0,0.0,0.0,0.0
0.0,0.0,1.7770405731462037e+24,0.0
0.0,0.0,0.0,0.0
0.0,0.0,0.0,0.0
1.777048643596736e+24,0.0,1.401298464324817e-45,0.0
0.0,0.0,0.0,0.0
0.0,0.0,1.7770499406334286e+24,0.0
0.0,0.0,0.0,0.0
0.0,0.0,0.0,0.0
1.777058011083961e+24,0.0,1.401298464324817e-45,0.0
0.0,0.0,0.0,0.0
0.0,0.0,1.7770591640054655e+24,0.0
0.0,0.0,0.0,0.0
0.0,0.0,0.0,0.0
1.7770673785711858e+24,0.0,1.401298464324817e-45,0.0
0.0,0.0,0.0,0.0
0.0,0.0,1.7770685314926904e+24,0.0
0.0,0.0,0.0,0.0
0.0,0.0,0.0,0.0
1.7770766019432227e+24,0.0,1.401298464324817e-45,0.0
0.0,0.0,0.0,0.0
0.0,0.0,1.7770777548647273e+24,0.0
0.0,0.0,0.0,0.0
0.0,0.0,0.0,0.0
1.7770859694304476e+24,0.0,1.401298464324817e-45,0.0
0.0,0.0,0.0,0.0
0.0,0.0,1.7770871223519522e+24,0.0
0.0,0.0,0.0,0.0
0.0,0.0,0.0,0.0
1.7770951928024844e+24,0.0,1.401298464324817e-45,0.0
0.0,0.0,0.0,0.0
0.0,0.0,1.777096345723989e+24,0.0
0.0,0.0,0.0,0.0
0.0,0.0,0.0,0.0
1.7771045602897094e+24,0.0,1.401298464324817e-45,0.0
0.0,0.0,0.0,0.0
0.0,0.0,1.777105713211214e+24,0.0
0.0,0.0,0.0,0.0
0.0,0.0,0.0,0.0
1.7771139277769343e+24,0.0,1.401298464324817e-45,0.0
0.0,0.0,0.0,0.0
0.0,0.0,1.777115080698439e+24,0.0
0.0,0.0,0.0,0.0
0.0,0.0,0.0,0.0
1.7771232952641592e+24,0.0,1.401298464324817e-45,0.0
0.0,0.0,0.0,0.0
0.0,0.0,1.7771244481856638e+24,0.0
0.0,0.0,0.0,0.0
0.0,0.0,0.0,0.0
1.7771326627513842e+24,0.0,1.401298464324817e-45,0.0
0.0,0.0,0.0,0.0
0.0,0.0,1.7771338156728888e+24,0.0
0.0,0.0,0.0,0.0
0.0,0.0,0.0,0.0
1.777142030238609e+24,0.0,1.401298464324817e-45,0.0
0.0,0.0,0.0,0.0
0.0,0.0,1.7771431831601137e+24,0.0
0.0,0.0,0.0,0.0
0.0,0.0,0.0,0.0
1.777151397725834e+24,0.0,1.401298464324817e-45,0.0
0.0,0.0,0.0,0.0
0.0,0.0,1.7771526947625267e+24,0.0
0.0,0.0,0.0,0.0
0.0,0.0,0.0,0.0
1.777160765213059e+24,0.0,1.401298464324817e-45,0.0
0.0,0.0,0.0,0.0
0.0,0.0,1.7771620622497516e+24,0.0
0.0,0.0,0.0,0.0
0.0,0.0,0.0,0.0
1.777170132700284e+24,0.0,1.401298464324817e-45,0.0
0.0,0.0,0.0,0.0
0.0,0.0,1.7771714297369766e+24,0.0
0.0,0.0,0.0,0.0
0.0,0.0,0.0,0.0
1.7771795001875088e+24,0.0,1.401298464324817e-45,0.0
0.0,0.0,0.0,0.0
0.0,0.0,1.7771807972242015e+24,0.0
0.0,0.0,0.0,0.0
0.0,0.0,0.0,0.0
1.7771890117899218e+24,0.0,1.401298464324817e-45,0.0
0.0,0.0,0.0,0.0
0.0,0.0,1.7771901647114264e+24,0.0
0.0,0.0,0.0,0.0
0.0,0.0,0.0,0.0
1.7775492997601115e+24,0.0,1.401298464324817e-45,0.0
0.0,0.0,0.0,0.0
0.0,0.0,1.777550452681616e+24,0.0
0.0,0.0,0.0,0.0
0.0,0.0,0.0,0.0
1.7775585231321483e+24,0.0,1.401298464324817e-45,0.0
0.0,0.0,0.0,0.0
0.0,0.0,1.777559676053653e+24,0.0
0.0,0.0,0.0,0.0
0.0,0.0,0.0,0.0
1.7775678906193733e+24,0.0,1.401298464324817e-45,0.0
0.0,0.0,0.0,0.0
0.0,0.0,1.7775690435408779e+24,0.0
0.0,0.0,0.0,0.0
0.0,0.0,0.0,0.0
1.77757711399141e+24,0.0,1.401298464324817e-45,0.0
0.0,0.0,0.0,0.0
0.0,0.0,1.7775782669129147e+24,0.0
0.0,0.0,0.0,0.0
0.0,0.0,0.0,0.0
1.777586481478635e+24,0.0,1.401298464324817e-45,0.0
0.0,0.0,0.0,0.0
0.0,0.0,1.7775876344001396e+24,0.0
0.0,0.0,0.0,0.0
0.0,0.0,0.0,0.0
1.777595704850672e+24,0.0,1.401298464324817e-45,0.0
0.0,0.0,0.0,0.0
0.0,0.0,1.7775968577721765e+24,0.0
0.0,0.0,0.0,0.0
0.0,0.0,0.0,0.0
1.7776050723378968e+24,0.0,1.401298464324817e-45,0.0
0.0,0.0,0.0,0.0
0.0,0.0,1.7776062252594014e+24,0.0
0.0,0.0,0.0,0.0
0.0,0.0,0.0,0.0
1.7776142957099337e+24,0.0,1.401298464324817e-45,0.0
0.0,0.0,0.0,0.0
0.0,0.0,1.7776154486314383e+24,0.0
0.0,0.0,0.0,0.0
0.0,0.0,0.0,0.0
1.7776236631971586e+24,0.0,1.401298464324817e-45,0.0
0.0,0.0,0.0,0.0
0.0,0.0,1.7776248161186632e+24,0.0
0.0,0.0,0.0,0.0
0.0,0.0,0.0,0.0
1.7776328865691955e+24,0.0,1.401298464324817e-45,0.0
0.0,0.0,0.0,0.0
0.0,0.0,1.7776340394907e+24,0.0
0.0,0.0,0.0,0.0
0.0,0.0,0.0,0.0
1.7776422540564204e+24,0.0,1.401298464324817e-45,0.0
0.0,0.0,0.0,0.0
0.0,0.0,1.777643406977925e+24,0.0
0.0,0.0,0.0,0.0
0.0,0.0,0.0,0.0
1.7776514774284573e+24,0.0,1.401298464324817e-45,0.0
0.0,0.0,0.0,0.0
0.0,0.0,1.7776526303499619e+24,0.0
0.0,0.0,0.0,0.0
0.0,0.0,0.0,0.0
1.7776608449156822e+24,0.0,1.401298464324817e-45,0.0
0.0,0.0,0.0,0.0
0.0,0.0,1.7776619978371868e+24,0.0
0.0,0.0,0.0,0.0
0.0,0.0,0.0,0.0
1.777670068287719e+24,0.0,1.401298464324817e-45,0.0
0.0,0.0,0.0,0.0
0.0,0.0,1.7776712212092236e+24,0.0
0.0,0.0,0.0,0.0
0.0,0.0,0.0,0.0
1.777679435774944e+24,0.0,1.401298464324817e-45,0.0
0.0,0.0,0.0,0.0
0.0,0.0,1.7776805886964486e+24,0.0
0.0,0.0,0.0,0.0
0.0,0.0,0.0,0.0
1.7776886591469808e+24,0.0,1.401298464324817e-45,0.0
0.0,0.0,0.0,0.0
0.0,0.0,1.7776898120684854e+24,0.0
0.0,0.0,0.0,0.0
0.0,0.0,0.0,0.0
1.7776980266342058e+24,0.0,1.401298464324817e-45,0.0
0.0,0.0,0.0,0.0
0.0,0.0,1.7776991795557104e+24,0.0
0.0,0.0,0.0,0.0
0.0,0.0,0.0,0.0
1.7777072500062426e+24,0.0,1.401298464324817e-45,0.0
0.0,0.0,0.0,0.0
0.0,0.0,1.7777084029277472e+24,0.0
0.0,0.0,0.0,0.0
0.0,0.0,0.0,0.0
1.7777166174934675e+24,0.0,1.401298464324817e-45,0.0
0.0,0.0,0.0,0.0
0.0,0.0,1.7777177704149721e+24,0.0
0.0,0.0,0.0,0.0
0.0,0.0,0.0,0.0
1.7777259849806925e+24,0.0,1.401298464324817e-45,0.0
0.0,0.0,0.0,0.0
0.0,0.0,1.777726993787009e+24,0.0
0.0,0.0,0.0,0.0
0.0,0.0,0.0,0.0
1.7777352083527293e+24,0.0,1.401298464324817e-45,0.0
0.0,0.0,0.0,0.0
0.0,0.0,1.777736361274234e+24,0.0
0.0,0.0,0.0,0.0
0.0,0.0,0.0,0.0
1.7777444317247662e+24,0.0,1.401298464324817e-45,0.0
0.0,0.0,0.0,0.0
0.0,0.0,1.7777455846462708e+24,0.0
0.0,0.0,0.0,0.0
0.0,0.0,0.0,0.0
1.777753799211991e+24,0.0,1.401298464324817e-45,0.0
0.0,0.0,0.0,0.0
0.0,0.0,1.7777549521334957e+24,0.0
0.0,0.0,0.0,0.0
0.0,0.0,0.0,0.0
1.777763022584028e+24,0.0,1.401298464324817e-45,0.0
0.0,0.0,0.0,0.0
0.0,0.0,1.7777643196207206e+24,0.0
0.0,0.0,0.0,0.0
0.0,0.0,0.0,0.0
1.777772390071253e+24,0.0,1.401298464324817e-45,0.0
0.0,0.0,0.0,0.0
0.0,0.0,1.7777735429927575e+24,0.0
0.0,0.0,0.0,0.0
0.0,0.0,0.0,0.0
1.7777817575584778e+24,0.0,1.401298464324817e-45,0.0
0.0,0.0,0.0,0.0
0.0,0.0,1.7777829104799824e+24,0.0
0.0,0.0,0.0,0.0
0.0,0.0,0.0,0.0
1.7777909809305147e+24,0.0,1.401298464324817e-45,0.0
0.0,0.0,0.0,0.0
0.0,0.0,1.7777921338520193e+24,0.0
0.0,0.0,0.0,0.0
0.0,0.0,0.0,0.0
1.7778003484177396e+24,0.0,1.401298464324817e-45,0.0
0.0,0.0,0.0,0.0
0.0,0.0,1.7778015013392442e+24,0.0
0.0,0.0,0.0,0.0
0.0,0.0,0.0,0.0
1.7778095717897765e+24,0.0,1.401298464324817e-45,0.0
0.0,0.0,0.0,0.0
0.0,0.0,1.777810724711281e+24,0.0
0.0,0.0,0.0,0.0
0.0,0.0,0.0,0.0
1.7778189392770014e+24,0.0,1.401298464324817e-45,0.0
0.0,0.0,0.0,0.0
0.0,0.0,1.777820092198506e+24,0.0
0.0,0.0,0.0,0.0
0.0,0.0,0.0,0.0
1.7778281626490382e+24,0.0,1.401298464324817e-45,0.0
0.0,0.0,0.0,0.0
0.0,0.0,1.7778293155705429e+24,0.0
0.0,0.0,0.0,0.0
0.0,0.0,0.0,0.0
1.7778375301362632e+24,0.0,1.401298464324817e-45,0.0
0.0,0.0,0.0,0.0
0.0,0.0,1.7778386830577678e+24,0.0
0.0,0.0,0.0,0.0
0.0,0.0,0.0,0.0
1.7778467535083e+24,0.0,1.401298464324817e-45,0.0
0.0,0.0,0.0,0.0
0.0,0.0,1.7778479064298046e+24,0.0
0.0,0.0,0.0,0.0
0.0,0.0,0.0,0.0
1.777856120995525e+24,0.0,1.401298464324817e-45,0.0
0.0,0.0,0.0,0.0
0.0,0.0,1.7778572739170296e+24,0.0
0.0,0.0,0.0,0.0
0.0,0.0,0.0,0.0
1.7778653443675618e+24,0.0,1.401298464324817e-45,0.0
0.0,0.0,0.0,0.0
0.0,0.0,1.7778664972890664e+24,0.0
0.0,0.0,0.0,0.0
0.0,0.0,0.0,0.0
1.7778747118547868e+24,0.0,1.401298464324817e-45,0.0
0.0,0.0,0.0,0.0
0.0,0.0,1.7778758647762914e+24,0.0
0.0,0.0,0.0,0.0
0.0,0.0,0.0,0.0
1.7778839352268236e+24,0.0,1.401298464324817e-45,0.0
0.0,0.0,0.0,0.0
0.0,0.0,1.7778850881483282e+24,0.0
0.0,0.0,0.0,0.0
0.0,0.0,0.0,0.0
1.7778933027140485e+24,0.0,1.401298464324817e-45,0.0
0.0,0.0,0.0,0.0
0.0,0.0,1.7778944556355531e+24,0.0
0.0,0.0,0.0,0.0
0.0,0.0,0.0,0.0
1.7779025260860854e+24,0.0,1.401298464324817e-45,0.0
0.0,0.0,0.0,0.0
0.0,0.0,1.77790367900759e+24,0.0
0.0,0.0,0.0,0.0
0.0,0.0,0.0,0.0
1.7779118935733103e+24,0.0,1.401298464324817e-45,0.0
0.0,0.0,0.0,0.0
0.0,0.0,1.777913046494815e+24,0.0
0.0,0.0,0.0,0.0
0.0,0.0,0.0,0.0
1.7779211169453472e+24,0.0,1.401298464324817e-45,0.0
0.0,0.0,0.0,0.0
0.0,0.0,1.7779224139820399e+24,0.0
0.0,0.0,0.0,0.0
0.0,0.0,0.0,0.0
1.777930484432572e+24,0.0,1.401298464324817e-45,0.0
0.0,0.0,0.0,0.0
0.0,0.0,1.7779316373540767e+24,0.0
0.0,0.0,0.0,0.0
0.0,0.0,0.0,0.0
1.777939851919797e+24,0.0,1.401298464324817e-45,0.0
0.0,0.0,0.0,0.0
0.0,0.0,1.7779410048413016e+24,0.0
0.0,0.0,0.0,0.0
0.0,0.0,0.0,0.0
1.777949075291834e+24,0.0,1.401298464324817e-45,0.0
0.0,0.0,0.0,0.0
0.0,0.0,1.7779502282133385e+24,0.0
0.0,0.0,0.0,0.0
0.0,0.0,0.0,0.0
1.7779584427790588e+24,0.0,1.401298464324817e-45,0.0
0.0,0.0,0.0,0.0
0.0,0.0,1.7779595957005634e+24,0.0
0.0,0.0,0.0,0.0
0.0,0.0,0.0,0.0
1.7779676661510957e+24,0.0,1.401298464324817e-45,0.0
0.0,0.0,0.0,0.0
0.0,0.0,1.7779688190726003e+24,0.0
0.0,0.0,0.0,0.0
0.0,0.0,0.0,0.0
1.7779770336383206e+24,0.0,1.401298464324817e-45,0.0
0.0,0.0,0.0,0.0
0.0,0.0,1.7779781865598252e+24,0.0
0.0,0.0,0.0,0.0
0.0,0.0,0.0,0.0
1.7779862570103575e+24,0.0,1.401298464324817e-45,0.0
0.0,0.0,0.0,0.0
0.0,0.0,1.777987409931862e+24,0.0
0.0,0.0,0.0,0.0
0.0,0.0,0.0,0.0
1.7779956244975824e+24,0.0,1.401298464324817e-45,0.0
0.0,0.0,0.0,0.0
0.0,0.0,1.777996777419087e+24,0.0
0.0,0.0,0.0,0.0
0.0,0.0,0.0,0.0
1.7780048478696192e+24,0.0,1.401298464324817e-45,0.0
0.0,0.0,0.0,0.0
0.0,0.0,1.7780060007911239e+24,0.0
0.0,0.0,0.0,0.0
0.0,0.0,0.0,0.0
1.7780142153568442e+24,0.0,1.401298464324817e-45,0.0
0.0,0.0,0.0,0.0
0.0,0.0,1.7780153682783488e+24,0.0
0.0,0.0,0.0,0.0
0.0,0.0,0.0,0.0
1.778023582844069e+24,0.0,1.401298464324817e-45,0.0
0.0,0.0,0.0,0.0
0.0,0.0,1.7780247357655737e+24,0.0
0.0,0.0,0.0,0.0
0.0,0.0,0.0,0.0
1.778032806216106e+24,0.0,1.401298464324817e-45,0.0
0.0,0.0,0.0,0.0
0.0,0.0,1.7780339591376106e+24,0.0
0.0,0.0,0.0,0.0
0.0,0.0,0.0,0.0
1.778042173703331e+24,0.0,1.401298464324817e-45,0.0
0.0,0.0,0.0,0.0
0.0,0.0,1.7780433266248355e+24,0.0
0.0,0.0,0.0,0.0
0.0,0.0,0.0,0.0
1.7780513970753678e+24,0.0,1.401298464324817e-45,0.0
0.0,0.0,0.0,0.0
0.0,0.0,1.7780525499968724e+24,0.0
0.0,0.0,0.0,0.0
0.0,0.0,0.0,0.0
1.7780607645625927e+24,0.0,1.401298464324817e-45,0.0
0.0,0.0,0.0,0.0
0.0,0.0,1.7780619174840973e+24,0.0
0.0,0.0,0.0,0.0
0.0,0.0,0.0,0.0
1.7780699879346295e+24,0.0,1.401298464324817e-45,0.0
0.0,0.0,0.0,0.0
0.0,0.0,1.7780711408561341e+24,0.0
0.0,0.0,0.0,0.0
0.0,0.0,0.0,0.0
1.7780793554218545e+24,0.0,1.401298464324817e-45,0.0
0.0,0.0,0.0,0.0
0.0,0.0,1.778080508343359e+24,0.0
0.0,0.0,0.0,0.0
0.0,0.0,0.0,0.0
1.7780885787938913e+24,0.0,1.401298464324817e-45,0.0
0.0,0.0,0.0,0.0
0.0,0.0,1.778089731715396e+24,0.0
0.0,0.0,0.0,0.0
0.0,0.0,0.0,0.0
1.7780979462811163e+24,0.0,1.401298464324817e-45,0.0
0.0,0.0,0.0,0.0
0.0,0.0,1.7780990992026209e+24,0.0
0.0,0.0,0.0,0.0
0.0,0.0,0.0,0.0
1.778107169653153e+24,0.0,1.401298464324817e-45,0.0
0.0,0.0,0.0,0.0
0.0,0.0,1.7781083225746577e+24,0.0
0.0,0.0,0.0,0.0
0.0,0.0,0.0,0.0
1.778116537140378e+24,0.0,1.401298464324817e-45,0.0
0.0,0.0,0.0,0.0
0.0,0.0,1.7781176900618826e+24,0.0
0.0,0.0,0.0,0.0
0.0,0.0,0.0,0.0
1.778125760512415e+24,0.0,1.401298464324817e-45,0.0
0.0,0.0,0.0,0.0
0.0,0.0,1.7781269134339195e+24,0.0
0.0,0.0,0.0,0.0
0.0,0.0,0.0,0.0
1.7781351279996398e+24,0.0,1.401298464324817e-45,0.0
0.0,0.0,0.0,0.0
0.0,0.0,1.7781362809211444e+24,0.0
0.0,0.0,0.0,0.0
0.0,0.0,0.0,0.0
1.7781443513716767e+24,0.0,1.401298464324817e-45,0.0
0.0,0.0,0.0,0.0
0.0,0.0,1.7781455042931813e+24,0.0
0.0,0.0,0.0,0.0
0.0,0.0,0.0,0.0
1.7781537188589016e+24,0.0,1.401298464324817e-45,0.0
0.0,0.0,0.0,0.0
0.0,0.0,1.7781548717804062e+24,0.0
0.0,0.0,0.0,0.0
0.0,0.0,0.0,0.0
1.7781630863461265e+24,0.0,1.401298464324817e-45,0.0
0.0,0.0,0.0,0.0
0.0,0.0,1.7781642392676311e+24,0.0
0.0,0.0,0.0,0.0
0.0,0.0,0.0,0.0
1.7781723097181634e+24,0.0,1.401298464324817e-45,0.0
0.0,0.0,0.0,0.0
0.0,0.0,1.778173462639668e+24,0.0
0.0,0.0,0.0,0.0
0.0,0.0,0.0,0.0
1.7781816772053883e+24,0.0,1.401298464324817e-45,0.0
0.0,0.0,0.0,0.0
0.0,0.0,1.778182830126893e+24,0.0
0.0,0.0,0.0,0.0
0.0,0.0,0.0,0.0
1.7781909005774252e+24,0.0,1.401298464324817e-45,0.0
0.0,0.0,0.0,0.0
0.0,0.0,1.7781920534989298e+24,0.0
0.0,0.0,0.0,0.0
0.0,0.0,0.0,0.0
1.77820026806465e+24,0.0,1.401298464324817e-45,0.0
0.0,0.0,0.0,0.0
0.0,0.0,1.7782014209861547e+24,0.0
0.0,0.0,0.0,0.0
0.0,0.0,0.0,0.0
1.778209491436687e+24,0.0,1.401298464324817e-45,0.0
0.0,0.0,0.0,0.0
0.0,0.0,1.7782106443581916e+24,0.0
0.0,0.0,0.0,0.0
0.0,0.0,0.0,0.0
1.778218858923912e+24,0.0,1.401298464324817e-45,0.0
0.0,0.0,0.0,0.0
0.0,0.0,1.7782200118454165e+24,0.0
0.0,0.0,0.0,0.0
0.0,0.0,0.0,0.0
1.7782280822959487e+24,0.0,1.401298464324817e-45,0.0
0.0,0.0,0.0,0.0
0.0,0.0,1.7782292352174534e+24,0.0
0.0,0.0,0.0,0.0
0.0,0.0,0.0,0.0
1.7782374497831737e+24,0.0,1.401298464324817e-45,0.0
0.0,0.0,0.0,0.0
0.0,0.0,1.7782386027046783e+24,0.0
0.0,0.0,0.0,0.0
0.0,0.0,0.0,0.0
1.7782466731552105e+24,0.0,1.401298464324817e-45,0.0
0.0,0.0,0.0,0.0
0.0,0.0,1.7782478260767151e+24,0.0
0.0,0.0,0.0,0.0
0.0,0.0,0.0,0.0
1.7782560406424355e+24,0.0,1.401298464324817e-45,0.0
0.0,0.0,0.0,0.0
0.0,0.0,1.77825719356394e+24,0.0
0.0,0.0,0.0,0.0
0.0,0.0,0.0,0.0
1.7782652640144723e+24,0.0,1.401298464324817e-45,0.0
0.0,0.0,0.0,0.0
0.0,0.0,1.778266416935977e+24,0.0
0.0,0.0,0.0,0.0
0.0,0.0,0.0,0.0
1.7782746315016973e+24,0.0,1.401298464324817e-45,0.0
0.0,0.0,0.0,0.0
0.0,0.0,1.7782757844232019e+24,0.0
0.0,0.0,0.0,0.0
0.0,0.0,0.0,0.0
1.778283854873734e+24,0.0,1.401298464324817e-45,0.0
0.0,0.0,0.0,0.0
0.0,0.0,1.7782851519104268e+24,0.0
0.0,0.0,0.0,0.0
0.0,0.0,0.0,0.0
1.778293222360959e+24,0.0,1.401298464324817e-45,0.0
0.0,0.0,0.0,0.0
0.0,0.0,1.7782943752824636e+24,0.0
0.0,0.0,0.0,0.0
0.0,0.0,0.0,0.0
1.778302445732996e+24,0.0,1.401298464324817e-45,0.0
0.0,0.0,0.0,0.0
0.0,0.0,1.7783037427696886e+24,0.0
0.0,0.0,0.0,0.0
0.0,0.0,0.0,0.0
1.7783118132202208e+24,0.0,1.401298464324817e-45,0.0
0.0,0.0,0.0,0.0
0.0,0.0,1.7783129661417254e+24,0.0
0.0,0.0,0.0,0.0
0.0,0.0,0.0,0.0
1.7783211807074458e+24,0.0,1.401298464324817e-45,0.0
0.0,0.0,0.0,0.0
0.0,0.0,1.7783223336289504e+24,0.0
0.0,0.0,0.0,0.0
0.0,0.0,0.0,0.0
1.7783304040794826e+24,0.0,1.401298464324817e-45,0.0
0.0,0.0,0.0,0.0
0.0,0.0,1.7783315570009872e+24,0.0
0.0,0.0,0.0,0.0
0.0,0.0,0.0,0.0
1.7783397715667075e+24,0.0,1.401298464324817e-45,0.0
0.0,0.0,0.0,0.0
0.0,0.0,1.7783409244882121e+24,0.0
0.0,0.0,0.0,0.0
0.0,0.0,0.0,0.0
1.7783489949387444e+24,0.0,1.401298464324817e-45,0.0
0.0,0.0,0.0,0.0
0.0,0.0,1.778350147860249e+24,0.0
0.0,0.0,0.0,0.0
0.0,0.0,0.0,0.0
1.7783583624259693e+24,0.0,1.401298464324817e-45,0.0
0.0,0.0,0.0,0.0
0.0,0.0,1.778359515347474e+24,0.0
0.0,0.0,0.0,0.0
0.0,0.0,0.0,0.0
1.7783675857980062e+24,0.0,1.401298464324817e-45,0.0
0.0,0.0,0.0,0.0
0.0,0.0,1.7783687387195108e+24,0.0
0.0,0.0,0.0,0.0
0.0,0.0,0.0,0.0
1.778376953285231e+24,0.0,1.401298464324817e-45,0.0
0.0,0.0,0.0,0.0
0.0,0.0,1.7783781062067357e+24,0.0
0.0,0.0,0.0,0.0
0.0,0.0,0.0,0.0
1.778386176657268e+24,0.0,1.401298464324817e-45,0.0
0.0,0.0,0.0,0.0
0.0,0.0,1.7783873295787726e+24,0.0
0.0,0.0,0.0,0.0
0.0,0.0,0.0,0.0
1.778395544144493e+24,0.0,1.401298464324817e-45,0.0
0.0,0.0,0.0,0.0
0.0,0.0,1.7783966970659975e+24,0.0
0.0,0.0,0.0,0.0
0.0,0.0,0.0,0.0
1.7784047675165297e+24,0.0,1.401298464324817e-45,0.0
0.0,0.0,0.0,0.0
0.0,0.0,1.7784059204380344e+24,0.0
0.0,0.0,0.0,0.0
0.0,0.0,0.0,0.0
1.7784141350037547e+24,0.0,1.401298464324817e-45,0.0
0.0,0.0,0.0,0.0
0.0,0.0,1.7784152879252593e+24,0.0
0.0,0.0,0.0,0.0
0.0,0.0,0.0,0.0
1.7784233583757915e+24,0.0,1.401298464324817e-45,0.0
0.0,0.0,0.0,0.0
0.0,0.0,1.7784245112972961e+24,0.0
0.0,0.0,0.0,0.0
0.0,0.0,0.0,0.0
1.7784327258630165e+24,0.0,1.401298464324817e-45,0.0
0.0,0.0,0.0,0.0
0.0,0.0,1.778433878784521e+24,0.0
0.0,0.0,0.0,0.0
0.0,0.0,0.0,0.0
1.7784419492350533e+24,0.0,1.401298464324817e-45,0.0
0.0,0.0,0.0,0.0
0.0,0.0,1.778443102156558e+24,0.0
1.401298464324817e-45,0.0,0.0,0.0
0.0,0.0,0.0,0.0
1.7785758322447758e+24,0.0,0.0,0.0
0.0,0.0,0.0,0.0
0.0,0.0,1.778576408705528e+24,0.0
0.0,0.0,0.0,0.0
0.0,0.0,0.0,0.0
1.7787088505633698e+24,0.0,1.401298464324817e-45,0.0
0.0,0.0,0.0,0.0
0.0,0.0,1.7787097152544983e+24,0.0
0.0,0.0,0.0,0.0
0.0,0.0,0.0,0.0
1.7788433100338446e+24,0.0,1.401298464324817e-45,0.0
0.0,0.0,0.0,0.0
0.0,0.0,1.778844174724973e+24,0.0
1.401298464324817e-45,0.0,0.0,0.0
0.0,0.0,0.0,0.0
1.77899045164087e+24,0.0,0.0,0.0
0.0,0.0,0.0,0.0
0.0,0.0,1.7789916045623746e+24,0.0
1.401298464324817e-45,0.0,0.0,0.0
0.0,0.0,0.0,0.0
1.779123325844276e+24,0.0,0.0,0.0
0.0,0.0,0.0,0.0
0.0,0.0,1.779123614074652e+24,0.0
0.0,0.0,0.0,0.0
0.0,0.0,0.0,0.0
1.779256200047682e+24,0.0,1.401298464324817e-45,0.0
0.0,0.0,0.0,0.0
0.0,0.0,1.7792569206236223e+24,0.0
1.401298464324817e-45,0.0,0.0,0.0
0.0,0.0,0.0,0.0
1.7793890742510878e+24,0.0,0.0,0.0
0.0,0.0,0.0,0.0
0.0,0.0,1.7793900830574044e+24,0.0
1.401298464324817e-45,0.0,0.0,0.0
0.0,0.0,0.0,0.0
1.7794913960346217e+24,0.0,0.0,0.0
0.0,0.0,0.0,0.0
0.0,0.0,1.7794915401498098e+24,0.0
0.0,0.0,0.0,0.0
0.0,0.0,0.0,0.0
1.7796242702380276e+24,0.0,1.401298464324817e-45,0.0
0.0,0.0,0.0,0.0
0.0,0.0,1.779624702583592e+24,0.0
1.401298464324817e-45,0.0,0.0,0.0
0.0,0.0,0.0,0.0
1.7797571444414336e+24,0.0,0.0,0.0
0.0,0.0,0.0,0.0
0.0,0.0,1.779758009132562e+24,0.0
0.0,0.0,0.0,0.0
0.0,0.0,0.0,0.0
1.7798901627600276e+24,0.0,1.401298464324817e-45,0.0
0.0,0.0,0.0,0.0
0.0,0.0,1.7798913156815322e+24,0.0
0.0,0.0,0.0,0.0
0.0,0.0,0.0,0.0
1.7800230369634335e+24,0.0,1.401298464324817e-45,0.0
0.0,0.0,0.0,0.0
0.0,0.0,1.7800233251938097e+24,0.0
1.401298464324817e-45,0.0,0.0,0.0
0.0,0.0,0.0,0.0
1.7801603787376698e+24,0.0,0.0,0.0
0.0,0.0,0.0,0.0
0.0,0.0,1.780160955198422e+24,0.0
0.0,0.0,0.0,0.0
0.0,0.0,0.0,0.0
1.7802932529410758e+24,0.0,1.401298464324817e-45,0.0
0.0,0.0,0.0,0.0
0.0,0.0,1.7802941176322042e+24,0.0
0.0,0.0,0.0,0.0
0.0,0.0,0.0,0.0
1.7804261271444817e+24,0.0,1.401298464324817e-45,0.0
0.0,0.0,0.0,0.0
0.0,0.0,1.7804261271444817e+24,0.0
1.401298464324817e-45,0.0,0.0,0.0
0.0,0.0,0.0,0.0
1.7805590013478876e+24,0.0,0.0,0.0
0.0,0.0,0.0,0.0
0.0,0.0,1.780559433693452e+24,0.0
0.0,0.0,0.0,0.0
0.0,0.0,0.0,0.0
1.7807108987561196e+24,0.0,1.401298464324817e-45,0.0
0.0,0.0,0.0,0.0
0.0,0.0,1.78071161933206e+24,0.0
1.401298464324817e-45,0.0,0.0,0.0
0.0,0.0,0.0,0.0
1.7808437729595255e+24,0.0,0.0,0.0
0.0,0.0,0.0,0.0
0.0,0.0,1.780844781765842e+24,0.0
1.401298464324817e-45,0.0,0.0,0.0
0.0,0.0,0.0,0.0
1.7809766471629315e+24,0.0,0.0,0.0
0.0,0.0,0.0,0.0
0.0,0.0,1.7809769353933076e+24,0.0
0.0,0.0,0.0,0.0
0.0,0.0,0.0,0.0
1.7811095213663374e+24,0.0,1.401298464324817e-45,0.0
0.0,0.0,0.0,0.0
0.0,0.0,1.7811102419422778e+24,0.0
1.401298464324817e-45,0.0,0.0,0.0
0.0,0.0,0.0,0.0
1.7812425396849314e+24,0.0,0.0,0.0
0.0,0.0,0.0,0.0
0.0,0.0,1.781243548491248e+24,0.0
0.0,0.0,0.0,0.0
0.0,0.0,0.0,0.0
1.7813755580035254e+24,0.0,1.401298464324817e-45,0.0
0.0,0.0,0.0,0.0
0.0,0.0,1.78137671092503e+24,0.0
0.0,0.0,0.0,0.0
0.0,0.0,0.0,0.0
1.7815085763221195e+24,0.0,1.401298464324817e-45,0.0
0.0,0.0,0.0,0.0
0.0,0.0,1.7815088645524956e+24,0.0
1.401298464324817e-45,0.0,0.0,0.0
0.0,0.0,0.0,0.0
1.7815320670977758e+24,0.0,0.0,0.0
0.0,0.0,0.0,0.0
0.0,0.0,1.7815327876737162e+24,0.0
0.0,0.0,0.0,0.0
0.0,0.0,0.0,0.0
1.7816630678037368e+24,0.0,1.401298464324817e-45,0.0
0.0,0.0,0.0,0.0
0.0,0.0,1.781663644264489e+24,0.0
1.401298464324817e-45,0.0,0.0,0.0
0.0,0.0,0.0,0.0
1.7817959420071427e+24,0.0,0.0,0.0
0.0,0.0,0.0,0.0
0.0,0.0,1.7817968066982712e+24,0.0
0.0,0.0,0.0,0.0
0.0,0.0,0.0,0.0
1.7819289603257367e+24,0.0,1.401298464324817e-45,0.0
0.0,0.0,0.0,0.0
0.0,0.0,1.7819301132472413e+24,0.0
0.0,0.0,0.0,0.0
0.0,0.0,0.0,0.0
1.7820214822764814e+24,0.0,1.401298464324817e-45,0.0
0.0,0.0,0.0,0.0
0.0,0.0,1.7820219146220457e+24,0.0
1.401298464324817e-45,0.0,0.0,0.0
0.0,0.0,0.0,0.0
1.7821545005950754e+24,0.0,0.0,0.0
0.0,0.0,0.0,0.0
0.0,0.0,1.7821552211710158e+24,0.0
0.0,0.0,0.0,0.0
0.0,0.0,0.0,0.0
1.7822873747984814e+24,0.0,1.401298464324817e-45,0.0
0.0,0.0,0.0,0.0
0.0,0.0,1.782288383604798e+24,0.0
0.0,0.0,0.0,0.0
0.0,0.0,0.0,0.0
1.7824202490018873e+24,0.0,1.401298464324817e-45,0.0
0.0,0.0,0.0,0.0
0.0,0.0,1.7824205372322635e+24,0.0
1.401298464324817e-45,0.0,0.0,0.0
0.0,0.0,0.0,0.0
1.7825531232052933e+24,0.0,0.0,0.0
0.0,0.0,0.0,0.0
0.0,0.0,1.7825536996660456e+24,0.0
0.0,0.0,0.0,0.0
0.0,0.0,0.0,0.0
1.7825783433632065e+24,0.0,1.401298464324817e-45,0.0
0.0,0.0,0.0,0.0
0.0,0.0,1.782579208054335e+24,0.0
1.401298464324817e-45,0.0,0.0,0.0
0.0,0.0,0.0,0.0
1.7827096322995436e+24,0.0,0.0,0.0
0.0,0.0,0.0,0.0
0.0,0.0,1.782710064645108e+24,0.0
0.0,0.0,0.0,0.0
0.0,0.0,0.0,0.0
1.7828427947333257e+24,0.0,1.401298464324817e-45,0.0
0.0,0.0,0.0,0.0
0.0,0.0,1.782843371194078e+24,0.0
1.401298464324817e-45,0.0,0.0,0.0
0.0,0.0,0.0,0.0
1.7829758130519197e+24,0.0,0.0,0.0
0.0,0.0,0.0,0.0
0.0,0.0,1.7829766777430482e+24,0.0
1.401298464324817e-45,0.0,0.0,0.0
0.0,0.0,0.0,0.0
1.7830176064564617e+24,0.0,0.0,0.0
0.0,0.0,0.0,0.0
0.0,0.0,1.7830177505716498e+24,0.0
0.0,0.0,0.0,0.0
0.0,0.0,0.0,0.0
1.7830263974829344e+24,0.0,0.0,0.0
0.0,0.0,0.0,0.0
0.0,0.0,1.7831058049515642e+24,0.0
1.401298464324817e-45,0.0,0.0,0.0
0.0,0.0,0.0,0.0
1.7831060931819403e+24,0.0,1.401298464324817e-45,0.0
0.0,0.0,0.0,0.0
0.0,0.0,1.78323867915497e+24,0.0
0.0,0.0,0.0,0.0
0.0,0.0,0.0,0.0
1.7832392556157224e+24,0.0,0.0,0.0
0.0,0.0,0.0,0.0
0.0,0.0,1.783371553358376e+24,0.0
1.401298464324817e-45,0.0,0.0,0.0
0.0,0.0,0.0,0.0
1.7833724180495045e+24,0.0,0.0,0.0
0.0,0.0,0.0,0.0
0.0,0.0,1.783504427561782e+24,0.0
1.401298464324817e-45,0.0,0.0,0.0
0.0,0.0,0.0,0.0
1.78350457167697e+24,0.0,1.401298464324817e-45,0.0
0.0,0.0,0.0,0.0
0.0,0.0,1.7836332665399218e+24,0.0
0.0,0.0,0.0,0.0
0.0,0.0,0.0,0.0
1.783633698885486e+24,0.0,0.0,0.0
0.0,0.0,0.0,0.0
0.0,0.0,1.7837661407433277e+24,0.0
1.401298464324817e-45,0.0,0.0,0.0
0.0,0.0,0.0,0.0
1.783766861319268e+24,0.0,1.401298464324817e-45,0.0
0.0,0.0,0.0,0.0
0.0,0.0,1.7838991590619218e+24,0.0
0.0,0.0,0.0,0.0
0.0,0.0,0.0,0.0
1.7839000237530502e+24,0.0,0.0,0.0
0.0,0.0,0.0,0.0
0.0,0.0,1.7840320332653277e+24,0.0
1.401298464324817e-45,0.0,0.0,0.0
0.0,0.0,0.0,0.0
1.7840331861868323e+24,0.0,0.0,0.0
0.0,0.0,0.0,0.0
0.0,0.0,1.7841607281282794e+24,0.0
1.401298464324817e-45,0.0,0.0,0.0
0.0,0.0,0.0,0.0
1.7841610163586556e+24,0.0,1.401298464324817e-45,0.0
0.0,0.0,0.0,0.0
0.0,0.0,1.7842936023316854e+24,0.0
0.0,0.0,0.0,0.0
0.0,0.0,0.0,0.0
1.7842941787924377e+24,0.0,0.0,0.0
0.0,0.0,0.0,0.0
0.0,0.0,1.7844264765350913e+24,0.0
1.401298464324817e-45,0.0,0.0,0.0
0.0,0.0,0.0,0.0
1.7844274853414078e+24,0.0,0.0,0.0
0.0,0.0,0.0,0.0
0.0,0.0,1.7845594948536853e+24,0.0
1.401298464324817e-45,0.0,0.0,0.0
0.0,0.0,0.0,0.0
1.7845596389688734e+24,0.0,1.401298464324817e-45,0.0
0.0,0.0,0.0,0.0
0.0,0.0,1.784688189716637e+24,0.0
0.0,0.0,0.0,0.0
0.0,0.0,0.0,0.0
1.7846884779470132e+24,0.0,0.0,0.0
0.0,0.0,0.0,0.0
0.0,0.0,1.7848217844959834e+24,0.0
1.401298464324817e-45,0.0,0.0,0.0
0.0,0.0,0.0,0.0
1.7848217844959834e+24,0.0,1.401298464324817e-45,0.0
0.0,0.0,0.0,0.0
0.0,0.0,1.7849548028145774e+24,0.0
0.0,0.0,0.0,0.0
0.0,0.0,0.0,0.0
1.7849550910449536e+24,0.0,0.0,0.0
0.0,0.0,0.0,0.0
0.0,0.0,1.7850901269761806e+24,0.0
1.401298464324817e-45,0.0,0.0,0.0
0.0,0.0,0.0,0.0
1.7850904152065568e+24,0.0,1.401298464324817e-45,0.0
0.0,0.0,0.0,0.0
0.0,0.0,1.7852156513049947e+24,0.0
0.0,0.0,0.0,0.0
0.0,0.0,0.0,0.0
1.785216227765747e+24,0.0,0.0,0.0
0.0,0.0,0.0,0.0
0.0,0.0,1.785301832187464e+24,0.0
1.401298464324817e-45,0.0,0.0,0.0
0.0,0.0,0.0,0.0
1.7853026968785925e+24,0.0,0.0,0.0
0.0,0.0,0.0,0.0
0.0,0.0,1.7853107673291248e+24,0.0
1.401298464324817e-45,0.0,0.0,0.0
0.0,0.0,0.0,0.0
1.7853120643658174e+24,0.0,0.0,0.0
0.0,0.0,0.0,0.0
0.0,0.0,1.7853201348163497e+24,0.0
1.401298464324817e-45,0.0,0.0,0.0
0.0,0.0,0.0,0.0
1.7853212877378543e+24,0.0,0.0,0.0
0.0,0.0,0.0,0.0
0.0,0.0,1.7853293581883865e+24,0.0
1.401298464324817e-45,0.0,0.0,0.0
0.0,0.0,0.0,0.0
1.7853306552250792e+24,0.0,0.0,0.0
0.0,0.0,0.0,0.0
0.0,0.0,1.7853387256756115e+24,0.0
1.401298464324817e-45,0.0,0.0,0.0
0.0,0.0,0.0,0.0
1.785339878597116e+24,0.0,0.0,0.0
0.0,0.0,0.0,0.0
0.0,0.0,1.7853480931628364e+24,0.0
1.401298464324817e-45,0.0,0.0,0.0
0.0,0.0,0.0,0.0
1.785349246084341e+24,0.0,0.0,0.0
0.0,0.0,0.0,0.0
0.0,0.0,1.7853573165348733e+24,0.0
1.401298464324817e-45,0.0,0.0,0.0
0.0,0.0,0.0,0.0
1.785358469456378e+24,0.0,0.0,0.0
0.0,0.0,0.0,0.0
0.0,0.0,1.7853666840220982e+24,0.0
1.401298464324817e-45,0.0,0.0,0.0
0.0,0.0,0.0,0.0
1.7853678369436028e+24,0.0,0.0,0.0
0.0,0.0,0.0,0.0
0.0,0.0,1.785375907394135e+24,0.0
1.401298464324817e-45,0.0,0.0,0.0
0.0,0.0,0.0,0.0
1.7853770603156397e+24,0.0,0.0,0.0
0.0,0.0,0.0,0.0
0.0,0.0,1.78538527488136e+24,0.0
1.401298464324817e-45,0.0,0.0,0.0
0.0,0.0,0.0,0.0
1.7853864278028646e+24,0.0,0.0,0.0
0.0,0.0,0.0,0.0
0.0,0.0,1.785394642368585e+24,0.0
1.401298464324817e-45,0.0,0.0,0.0
0.0,0.0,0.0,0.0
1.7853957952900895e+24,0.0,0.0,0.0
0.0,0.0,0.0,0.0
0.0,0.0,1.7854040098558098e+24,0.0
1.401298464324817e-45,0.0,0.0,0.0
0.0,0.0,0.0,0.0
1.7854051627773144e+24,0.0,0.0,0.0
0.0,0.0,0.0,0.0
0.0,0.0,1.7854133773430348e+24,0.0
1.401298464324817e-45,0.0,0.0,0.0
0.0,0.0,0.0,0.0
1.7854145302645394e+24,0.0,0.0,0.0
0.0,0.0,0.0,0.0
0.0,0.0,1.7854227448302597e+24,0.0
1.401298464324817e-45,0.0,0.0,0.0
0.0,0.0,0.0,0.0
1.7854238977517643e+24,0.0,0.0,0.0
0.0,0.0,0.0,0.0
0.0,0.0,1.7854319682022966e+24,0.0
1.401298464324817e-45,0.0,0.0,0.0
0.0,0.0,0.0,0.0
1.7854332652389892e+24,0.0,0.0,0.0
0.0,0.0,0.0,0.0
0.0,0.0,1.7854413356895215e+24,0.0
1.401298464324817e-45,0.0,0.0,0.0
0.0,0.0,0.0,0.0
1.785442488611026e+24,0.0,0.0,0.0
0.0,0.0,0.0,0.0
0.0,0.0,1.7854507031767464e+24,0.0
1.401298464324817e-45,0.0,0.0,0.0
0.0,0.0,0.0,0.0
1.785451856098251e+24,0.0,0.0,0.0
0.0,0.0,0.0,0.0
0.0,0.0,1.7854600706639713e+24,0.0
1.401298464324817e-45,0.0,0.0,0.0
0.0,0.0,0.0,0.0
1.785461223585476e+24,0.0,0.0,0.0
0.0,0.0,0.0,0.0
0.0,0.0,1.7854694381511963e+24,0.0
1.401298464324817e-45,0.0,0.0,0.0
0.0,0.0,0.0,0.0
1.785470591072701e+24,0.0,0.0,0.0
0.0,0.0,0.0,0.0
0.0,0.0,1.7854788056384212e+24,0.0
1.401298464324817e-45,0.0,0.0,0.0
0.0,0.0,0.0,0.0
1.7854799585599258e+24,0.0,0.0,0.0
0.0,0.0,0.0,0.0
0.0,0.0,1.785488029010458e+24,0.0
1.401298464324817e-45,0.0,0.0,0.0
0.0,0.0,0.0,0.0
1.7854891819319627e+24,0.0,0.0,0.0
0.0,0.0,0.0,0.0
0.0,0.0,1.785497396497683e+24,0.0
1.401298464324817e-45,0.0,0.0,0.0
0.0,0.0,0.0,0.0
1.7854985494191876e+24,0.0,0.0,0.0
0.0,0.0,0.0,0.0
0.0,0.0,1.7855066198697199e+24,0.0
1.401298464324817e-45,0.0,0.0,0.0
0.0,0.0,0.0,0.0
1.7855077727912245e+24,0.0,0.0,0.0
0.0,0.0,0.0,0.0
0.0,0.0,1.7855159873569448e+24,0.0
1.401298464324817e-45,0.0,0.0,0.0
0.0,0.0,0.0,0.0
1.7855171402784494e+24,0.0,0.0,0.0
0.0,0.0,0.0,0.0
0.0,0.0,1.7855252107289816e+24,0.0
1.401298464324817e-45,0.0,0.0,0.0
0.0,0.0,0.0,0.0
1.7855263636504862e+24,0.0,0.0,0.0
0.0,0.0,0.0,0.0
0.0,0.0,1.7855345782162066e+24,0.0
1.401298464324817e-45,0.0,0.0,0.0
0.0,0.0,0.0,0.0
1.7855357311377112e+24,0.0,0.0,0.0
0.0,0.0,0.0,0.0
0.0,0.0,1.7855438015882434e+24,0.0
1.401298464324817e-45,0.0,0.0,0.0
0.0,0.0,0.0,0.0
1.785544954509748e+24,0.0,0.0,0.0
0.0,0.0,0.0,0.0
0.0,0.0,1.7855531690754684e+24,0.0
1.401298464324817e-45,0.0,0.0,0.0
0.0,0.0,0.0,0.0
1.785554321996973e+24,0.0,0.0,0.0
0.0,0.0,0.0,0.0
0.0,0.0,1.7855623924475052e+24,0.0
1.401298464324817e-45,0.0,0.0,0.0
0.0,0.0,0.0,0.0
1.7855635453690098e+24,0.0,0.0,0.0
0.0,0.0,0.0,0.0
0.0,0.0,1.7855717599347301e+24,0.0
1.401298464324817e-45,0.0,0.0,0.0
0.0,0.0,0.0,0.0
1.7855729128562347e+24,0.0,0.0,0.0
0.0,0.0,0.0,0.0
0.0,0.0,1.785580983306767e+24,0.0
1.401298464324817e-45,0.0,0.0,0.0
0.0,0.0,0.0,0.0
1.7855822803434597e+24,0.0,0.0,0.0
0.0,0.0,0.0,0.0
0.0,0.0,1.785590350793992e+24,0.0
1.401298464324817e-45,0.0,0.0,0.0
0.0,0.0,0.0,0.0
1.7855915037154965e+24,0.0,0.0,0.0
0.0,0.0,0.0,0.0
0.0,0.0,1.7855997182812169e+24,0.0
1.401298464324817e-45,0.0,0.0,0.0
0.0,0.0,0.0,0.0
1.7856008712027215e+24,0.0,0.0,0.0
0.0,0.0,0.0,0.0
0.0,0.0,1.7856089416532537e+24,0.0
1.401298464324817e-45,0.0,0.0,0.0
0.0,0.0,0.0,0.0
1.7856102386899464e+24,0.0,0.0,0.0
0.0,0.0,0.0,0.0
0.0,0.0,1.7856183091404786e+24,0.0
1.401298464324817e-45,0.0,0.0,0.0
0.0,0.0,0.0,0.0
1.7856194620619832e+24,0.0,0.0,0.0
0.0,0.0,0.0,0.0
0.0,0.0,1.7856276766277036e+24,0.0
1.401298464324817e-45,0.0,0.0,0.0
0.0,0.0,0.0,0.0
1.7856288295492082e+24,0.0,0.0,0.0
0.0,0.0,0.0,0.0
0.0,0.0,1.7856368999997404e+24,0.0
1.401298464324817e-45,0.0,0.0,0.0
0.0,0.0,0.0,0.0
1.785638052921245e+24,0.0,0.0,0.0
0.0,0.0,0.0,0.0
0.0,0.0,1.7856462674869654e+24,0.0
1.401298464324817e-45,0.0,0.0,0.0
0.0,0.0,0.0,0.0
1.78564742040847e+24,0.0,0.0,0.0
0.0,0.0,0.0,0.0
0.0,0.0,1.7856554908590022e+24,0.0
1.401298464324817e-45,0.0,0.0,0.0
0.0,0.0,0.0,0.0
1.7856566437805068e+24,0.0,0.0,0.0
0.0,0.0,0.0,0.0
0.0,0.0,1.7856648583462271e+24,0.0
1.401298464324817e-45,0.0,0.0,0.0
0.0,0.0,0.0,0.0
1.7856660112677317e+24,0.0,0.0,0.0
0.0,0.0,0.0,0.0
0.0,0.0,1.785674225833452e+24,0.0
1.401298464324817e-45,0.0,0.0,0.0
0.0,0.0,0.0,0.0
1.7856753787549567e+24,0.0,0.0,0.0
0.0,0.0,0.0,0.0
0.0,0.0,1.785683593320677e+24,0.0
1.401298464324817e-45,0.0,0.0,0.0
0.0,0.0,0.0,0.0
1.7856847462421816e+24,0.0,0.0,0.0
0.0,0.0,0.0,0.0
0.0,0.0,1.785816755754459e+24,0.0
1.401298464324817e-45,0.0,0.0,0.0
0.0,0.0,0.0,0.0
1.7858171881000233e+24,0.0,1.401298464324817e-45,0.0
0.0,0.0,0.0,0.0
0.0,0.0,1.7859634650159203e+24,0.0
0.0,0.0,0.0,0.0
0.0,0.0,0.0,0.0
1.7859640414766726e+24,0.0,1.401298464324817e-45,0.0
0.0,0.0,0.0,0.0
0.0,0.0,1.7860989332927116e+24,0.0
0.0,0.0,0.0,0.0
0.0,0.0,0.0,0.0
1.78609979798384e+24,0.0,0.0,0.0
0.0,0.0,0.0,0.0
0.0,0.0,1.7861581646350108e+24,0.0
1.401298464324817e-45,0.0,0.0,0.0
0.0,0.0,0.0,0.0
1.7861591734413273e+24,0.0,0.0,0.0
0.0,0.0,0.0,0.0
0.0,0.0,1.7861672438918596e+24,0.0
1.401298464324817e-45,0.0,0.0,0.0
0.0,0.0,0.0,0.0
1.7861683968133642e+24,0.0,0.0,0.0
0.0,0.0,0.0,0.0
0.0,0.0,1.7861766113790845e+24,0.0
1.401298464324817e-45,0.0,0.0,0.0
0.0,0.0,0.0,0.0
1.786177764300589e+24,0.0,0.0,0.0
0.0,0.0,0.0,0.0
0.0,0.0,1.7861858347511214e+24,0.0
1.401298464324817e-45,0.0,0.0,0.0
0.0,0.0,0.0,0.0
1.786186987672626e+24,0.0,0.0,0.0
0.0,0.0,0.0,0.0
0.0,0.0,1.7861952022383463e+24,0.0
1.401298464324817e-45,0.0,0.0,0.0
0.0,0.0,0.0,0.0
1.786196355159851e+24,0.0,0.0,0.0
0.0,0.0,0.0,0.0
0.0,0.0,1.7862044256103831e+24,0.0
1.401298464324817e-45,0.0,0.0,0.0
0.0,0.0,0.0,0.0
1.7862055785318878e+24,0.0,0.0,0.0
0.0,0.0,0.0,0.0
0.0,0.0,1.786213793097608e+24,0.0
1.401298464324817e-45,0.0,0.0,0.0
0.0,0.0,0.0,0.0
1.7862149460191127e+24,0.0,0.0,0.0
0.0,0.0,0.0,0.0
0.0,0.0,1.786223016469645e+24,0.0
1.401298464324817e-45,0.0,0.0,0.0
0.0,0.0,0.0,0.0
1.7862241693911495e+24,0.0,0.0,0.0
0.0,0.0,0.0,0.0
0.0,0.0,1.7862323839568699e+24,0.0
1.401298464324817e-45,0.0,0.0,0.0
0.0,0.0,0.0,0.0
1.7862335368783745e+24,0.0,0.0,0.0
0.0,0.0,0.0,0.0
0.0,0.0,1.7862416073289067e+24,0.0
1.401298464324817e-45,0.0,0.0,0.0
0.0,0.0,0.0,0.0
1.7862429043655994e+24,0.0,0.0,0.0
0.0,0.0,0.0,0.0
0.0,0.0,1.7862509748161316e+24,0.0
1.401298464324817e-45,0.0,0.0,0.0
0.0,0.0,0.0,0.0
1.7862521277376363e+24,0.0,0.0,0.0
0.0,0.0,0.0,0.0
0.0,0.0,1.7862601981881685e+24,0.0
1.401298464324817e-45,0.0,0.0,0.0
0.0,0.0,0.0,0.0
1.7862614952248612e+24,0.0,0.0,0.0
0.0,0.0,0.0,0.0
0.0,0.0,1.7862695656753934e+24,0.0
1.401298464324817e-45,0.0,0.0,0.0
0.0,0.0,0.0,0.0
1.786270718596898e+24,0.0,0.0,0.0
0.0,0.0,0.0,0.0
0.0,0.0,1.7862787890474303e+24,0.0
1.401298464324817e-45,0.0,0.0,0.0
0.0,0.0,0.0,0.0
1.786280086084123e+24,0.0,0.0,0.0
0.0,0.0,0.0,0.0
0.0,0.0,1.7862881565346552e+24,0.0
1.401298464324817e-45,0.0,0.0,0.0
0.0,0.0,0.0,0.0
1.7862893094561598e+24,0.0,0.0,0.0
0.0,0.0,0.0,0.0
0.0,0.0,1.786297379906692e+24,0.0
1.401298464324817e-45,0.0,0.0,0.0
0.0,0.0,0.0,0.0
1.7862986769433848e+24,0.0,0.0,0.0
0.0,0.0,0.0,0.0
0.0,0.0,1.786306747393917e+24,0.0
1.401298464324817e-45,0.0,0.0,0.0
0.0,0.0,0.0,0.0
1.7863079003154216e+24,0.0,1.401298464324817e-45,0.0
0.0,0.0,0.0,0.0
0.0,0.0,1.7864384686758183e+24,0.0
0.0,0.0,0.0,0.0
0.0,0.0,0.0,0.0
1.7864389010213826e+24,0.0,0.0,0.0
0.0,0.0,0.0,0.0
0.0,0.0,1.7865713428792243e+24,0.0
1.401298464324817e-45,0.0,0.0,0.0
0.0,0.0,0.0,0.0
1.7865720634551647e+24,0.0,1.401298464324817e-45,0.0
0.0,0.0,0.0,0.0
0.0,0.0,1.7867043611978183e+24,0.0
0.0,0.0,0.0,0.0
0.0,0.0,0.0,0.0
1.7867052258889467e+24,0.0,0.0,0.0
0.0,0.0,0.0,0.0
0.0,0.0,1.7868372354012242e+24,0.0
1.401298464324817e-45,0.0,0.0,0.0
0.0,0.0,0.0,0.0
1.7868383883227288e+24,0.0,0.0,0.0
0.0,0.0,0.0,0.0
0.0,0.0,1.7869701096046302e+24,0.0
1.401298464324817e-45,0.0,0.0,0.0
0.0,0.0,0.0,0.0
1.7869705419501944e+24,0.0,1.401298464324817e-45,0.0
0.0,0.0,0.0,0.0
0.0,0.0,1.7869797653222312e+24,0.0
0.0,0.0,0.0,0.0
0.0,0.0,0.0,0.0
1.7869803417829836e+24,0.0,1.401298464324817e-45,0.0
0.0,0.0,0.0,0.0
0.0,0.0,1.786988556348704e+24,0.0
0.0,0.0,0.0,0.0
0.0,0.0,0.0,0.0
1.7869897092702085e+24,0.0,1.401298464324817e-45,0.0
0.0,0.0,0.0,0.0
0.0,0.0,1.7869977797207407e+24,0.0
0.0,0.0,0.0,0.0
0.0,0.0,0.0,0.0
1.7869989326422453e+24,0.0,1.401298464324817e-45,0.0
0.0,0.0,0.0,0.0
0.0,0.0,1.7870071472079657e+24,0.0
0.0,0.0,0.0,0.0
0.0,0.0,0.0,0.0
1.7870083001294703e+24,0.0,1.401298464324817e-45,0.0
0.0,0.0,0.0,0.0
0.0,0.0,1.7870163705800025e+24,0.0
0.0,0.0,0.0,0.0
0.0,0.0,0.0,0.0
1.787017523501507e+24,0.0,1.401298464324817e-45,0.0
0.0,0.0,0.0,0.0
0.0,0.0,1.7870257380672274e+24,0.0
0.0,0.0,0.0,0.0
0.0,0.0,0.0,0.0
1.787026890988732e+24,0.0,1.401298464324817e-45,0.0
0.0,0.0,0.0,0.0
0.0,0.0,1.7870349614392643e+24,0.0
0.0,0.0,0.0,0.0
0.0,0.0,0.0,0.0
1.787036114360769e+24,0.0,1.401298464324817e-45,0.0
0.0,0.0,0.0,0.0
0.0,0.0,1.7870443289264892e+24,0.0
0.0,0.0,0.0,0.0
0.0,0.0,0.0,0.0
1.7870454818479938e+24,0.0,1.401298464324817e-45,0.0
0.0,0.0,0.0,0.0
0.0,0.0,1.787053552298526e+24,0.0
0.0,0.0,0.0,0.0
0.0,0.0,0.0,0.0
1.7870547052200307e+24,0.0,1.401298464324817e-45,0.0
0.0,0.0,0.0,0.0
0.0,0.0,1.787062919785751e+24,0.0
0.0,0.0,0.0,0.0
0.0,0.0,0.0,0.0
1.7870640727072556e+24,0.0,1.401298464324817e-45,0.0
0.0,0.0,0.0,0.0
0.0,0.0,1.787072143157788e+24,0.0
0.0,0.0,0.0,0.0
0.0,0.0,0.0,0.0
1.7870732960792925e+24,0.0,1.401298464324817e-45,0.0
0.0,0.0,0.0,0.0
0.0,0.0,1.7870815106450128e+24,0.0
0.0,0.0,0.0,0.0
0.0,0.0,0.0,0.0
1.7870826635665174e+24,0.0,1.401298464324817e-45,0.0
0.0,0.0,0.0,0.0
0.0,0.0,1.7870907340170497e+24,0.0
0.0,0.0,0.0,0.0
0.0,0.0,0.0,0.0
1.7870918869385543e+24,0.0,1.401298464324817e-45,0.0
0.0,0.0,0.0,0.0
0.0,0.0,1.7871001015042746e+24,0.0
0.0,0.0,0.0,0.0
0.0,0.0,0.0,0.0
1.7871012544257792e+24,0.0,1.401298464324817e-45,0.0
0.0,0.0,0.0,0.0
0.0,0.0,1.7871094689914995e+24,0.0
0.0,0.0,0.0,0.0
0.0,0.0,0.0,0.0
1.787110621913004e+24,0.0,1.401298464324817e-45,0.0
0.0,0.0,0.0,0.0
0.0,0.0,1.7871186923635364e+24,0.0
0.0,0.0,0.0,0.0
0.0,0.0,0.0,0.0
1.787119845285041e+24,0.0,1.401298464324817e-45,0.0
0.0,0.0,0.0,0.0
0.0,0.0,1.7871280598507613e+24,0.0
0.0,0.0,0.0,0.0
0.0,0.0,0.0,0.0
1.787129212772266e+24,0.0,1.401298464324817e-45,0.0
0.0,0.0,0.0,0.0
0.0,0.0,1.7871372832227982e+24,0.0
0.0,0.0,0.0,0.0
0.0,0.0,0.0,0.0
1.7871384361443028e+24,0.0,1.401298464324817e-45,0.0
0.0,0.0,0.0,0.0
0.0,0.0,1.787146650710023e+24,0.0
0.0,0.0,0.0,0.0
0.0,0.0,0.0,0.0
1.7871478036315277e+24,0.0,1.401298464324817e-45,0.0
0.0,0.0,0.0,0.0
0.0,0.0,1.78715587408206e+24,0.0
0.0,0.0,0.0,0.0
0.0,0.0,0.0,0.0
1.7871570270035646e+24,0.0,1.401298464324817e-45,0.0
0.0,0.0,0.0,0.0
0.0,0.0,1.787165241569285e+24,0.0
0.0,0.0,0.0,0.0
0.0,0.0,0.0,0.0
1.7871663944907895e+24,0.0,1.401298464324817e-45,0.0
0.0,0.0,0.0,0.0
0.0,0.0,1.7871744649413217e+24,0.0
0.0,0.0,0.0,0.0
0.0,0.0,0.0,0.0
1.7871756178628263e+24,0.0,1.401298464324817e-45,0.0
0.0,0.0,0.0,0.0
0.0,0.0,1.7871838324285467e+24,0.0
0.0,0.0,0.0,0.0
0.0,0.0,0.0,0.0
1.7871849853500513e+24,0.0,1.401298464324817e-45,0.0
0.0,0.0,0.0,0.0
0.0,0.0,1.7871930558005835e+24,0.0
0.0,0.0,0.0,0.0
0.0,0.0,0.0,0.0
1.787194208722088e+24,0.0,1.401298464324817e-45,0.0
0.0,0.0,0.0,0.0
0.0,0.0,1.7872024232878084e+24,0.0
0.0,0.0,0.0,0.0
0.0,0.0,0.0,0.0
1.787203576209313e+24,0.0,1.401298464324817e-45,0.0
0.0,0.0,0.0,0.0
0.0,0.0,1.7872116466598453e+24,0.0
0.0,0.0,0.0,0.0
0.0,0.0,0.0,0.0
1.787212943696538e+24,0.0,1.401298464324817e-45,0.0
0.0,0.0,0.0,0.0
0.0,0.0,1.7872210141470702e+24,0.0
0.0,0.0,0.0,0.0
0.0,0.0,0.0,0.0
1.7872221670685748e+24,0.0,1.401298464324817e-45,0.0
0.0,0.0,0.0,0.0
0.0,0.0,1.787230237519107e+24,0.0
0.0,0.0,0.0,0.0
0.0,0.0,0.0,0.0
1.7872315345557998e+24,0.0,1.401298464324817e-45,0.0
0.0,0.0,0.0,0.0
0.0,0.0,1.787239605006332e+24,0.0
0.0,0.0,0.0,0.0
0.0,0.0,0.0,0.0
1.7872407579278366e+24,0.0,1.401298464324817e-45,0.0
0.0,0.0,0.0,0.0
0.0,0.0,1.787248972493557e+24,0.0
0.0,0.0,0.0,0.0
0.0,0.0,0.0,0.0
1.7872501254150616e+24,0.0,1.401298464324817e-45,0.0
0.0,0.0,0.0,0.0
0.0,0.0,1.7872581958655938e+24,0.0
0.0,0.0,0.0,0.0
0.0,0.0,0.0,0.0
1.7872593487870984e+24,0.0,1.401298464324817e-45,0.0
0.0,0.0,0.0,0.0
0.0,0.0,1.7872675633528187e+24,0.0
0.0,0.0,0.0,0.0
0.0,0.0,0.0,0.0
1.7872687162743233e+24,0.0,1.401298464324817e-45,0.0
0.0,0.0,0.0,0.0
0.0,0.0,1.7872767867248556e+24,0.0
0.0,0.0,0.0,0.0
0.0,0.0,0.0,0.0
1.7872779396463602e+24,0.0,1.401298464324817e-45,0.0
0.0,0.0,0.0,0.0
0.0,0.0,1.7872861542120805e+24,0.0
0.0,0.0,0.0,0.0
0.0,0.0,0.0,0.0
1.787287307133585e+24,0.0,1.401298464324817e-45,0.0
0.0,0.0,0.0,0.0
0.0,0.0,1.7872953775841174e+24,0.0
0.0,0.0,0.0,0.0
0.0,0.0,0.0,0.0
1.787296530505622e+24,0.0,1.401298464324817e-45,0.0
0.0,0.0,0.0,0.0
0.0,0.0,1.7873047450713423e+24,0.0
0.0,0.0,0.0,0.0
0.0,0.0,0.0,0.0
1.787305897992847e+24,0.0,1.401298464324817e-45,0.0
0.0,0.0,0.0,0.0
0.0,0.0,1.7873139684433792e+24,0.0
0.0,0.0,0.0,0.0
0.0,0.0,0.0,0.0
1.7873151213648838e+24,0.0,1.401298464324817e-45,0.0
0.0,0.0,0.0,0.0
0.0,0.0,1.787323335930604e+24,0.0
0.0,0.0,0.0,0.0
0.0,0.0,0.0,0.0
1.7873244888521087e+24,0.0,1.401298464324817e-45,0.0
0.0,0.0,0.0,0.0
0.0,0.0,1.787332559302641e+24,0.0
0.0,0.0,0.0,0.0
0.0,0.0,0.0,0.0
1.7873337122241456e+24,0.0,1.401298464324817e-45,0.0
0.0,0.0,0.0,0.0
0.0,0.0,1.787341926789866e+24,0.0
0.0,0.0,0.0,0.0
0.0,0.0,0.0,0.0
1.7873430797113705e+24,0.0,1.401298464324817e-45,0.0
0.0,0.0,0.0,0.0
0.0,0.0,1.7873511501619027e+24,0.0
0.0,0.0,0.0,0.0
0.0,0.0,0.0,0.0
1.7873523030834073e+24,0.0,1.401298464324817e-45,0.0
0.0,0.0,0.0,0.0
0.0,0.0,1.7873605176491277e+24,0.0
0.0,0.0,0.0,0.0
0.0,0.0,0.0,0.0
1.7873616705706323e+24,0.0,1.401298464324817e-45,0.0
0.0,0.0,0.0,0.0
0.0,0.0,1.7873697410211645e+24,0.0
0.0,0.0,0.0,0.0
0.0,0.0,0.0,0.0
1.787370893942669e+24,0.0,1.401298464324817e-45,0.0
0.0,0.0,0.0,0.0
0.0,0.0,1.7873791085083894e+24,0.0
0.0,0.0,0.0,0.0
0.0,0.0,0.0,0.0
1.787380261429894e+24,0.0,1.401298464324817e-45,0.0
0.0,0.0,0.0,0.0
0.0,0.0,1.7873883318804263e+24,0.0
0.0,0.0,0.0,0.0
0.0,0.0,0.0,0.0
1.787389484801931e+24,0.0,1.401298464324817e-45,0.0
0.0,0.0,0.0,0.0
0.0,0.0,1.7873976993676512e+24,0.0
0.0,0.0,0.0,0.0
0.0,0.0,0.0,0.0
1.7873988522891558e+24,0.0,1.401298464324817e-45,0.0
0.0,0.0,0.0,0.0
0.0,0.0,1.787406922739688e+24,0.0
0.0,0.0,0.0,0.0
0.0,0.0,0.0,0.0
1.7874080756611927e+24,0.0,1.401298464324817e-45,0.0
0.0,0.0,0.0,0.0
0.0,0.0,1.787416290226913e+24,0.0
0.0,0.0,0.0,0.0
0.0,0.0,0.0,0.0
1.7874174431484176e+24,0.0,1.401298464324817e-45,0.0
0.0,0.0,0.0,0.0
0.0,0.0,1.78742551359895e+24,0.0
0.0,0.0,0.0,0.0
0.0,0.0,0.0,0.0
1.7874266665204545e+24,0.0,1.401298464324817e-45,0.0
0.0,0.0,0.0,0.0
0.0,0.0,1.7874348810861748e+24,0.0
0.0,0.0,0.0,0.0
0.0,0.0,0.0,0.0
1.7874360340076794e+24,0.0,1.401298464324817e-45,0.0
0.0,0.0,0.0,0.0
0.0,0.0,1.7874441044582117e+24,0.0
0.0,0.0,0.0,0.0
0.0,0.0,0.0,0.0
1.7874452573797163e+24,0.0,1.401298464324817e-45,0.0
0.0,0.0,0.0,0.0
0.0,0.0,1.7874534719454366e+24,0.0
0.0,0.0,0.0,0.0
0.0,0.0,0.0,0.0
1.7874546248669412e+24,0.0,1.401298464324817e-45,0.0
0.0,0.0,0.0,0.0
0.0,0.0,1.7874626953174734e+24,0.0
0.0,0.0,0.0,0.0
0.0,0.0,0.0,0.0
1.787463848238978e+24,0.0,1.401298464324817e-45,0.0
0.0,0.0,0.0,0.0
0.0,0.0,1.7874720628046984e+24,0.0
0.0,0.0,0.0,0.0
0.0,0.0,0.0,0.0
1.787473215726203e+24,0.0,1.401298464324817e-45,0.0
0.0,0.0,0.0,0.0
0.0,0.0,1.7874812861767352e+24,0.0
0.0,0.0,0.0,0.0
0.0,0.0,0.0,0.0
1.7874824390982398e+24,0.0,1.401298464324817e-45,0.0
0.0,0.0,0.0,0.0
0.0,0.0,1.7874906536639602e+24,0.0
0.0,0.0,0.0,0.0
0.0,0.0,0.0,0.0
1.7874918065854648e+24,0.0,1.401298464324817e-45,0.0
0.0,0.0,0.0,0.0
0.0,0.0,1.787500021151185e+24,0.0
0.0,0.0,0.0,0.0
0.0,0.0,0.0,0.0
1.7875011740726897e+24,0.0,1.401298464324817e-45,0.0
0.0,0.0,0.0,0.0
0.0,0.0,1.78750938863841e+24,0.0
0.0,0.0,0.0,0.0
0.0,0.0,0.0,0.0
1.7875105415599146e+24,0.0,1.401298464324817e-45,0.0
0.0,0.0,0.0,0.0
0.0,0.0,1.787518756125635e+24,0.0
0.0,0.0,0.0,0.0
0.0,0.0,0.0,0.0
1.7875199090471396e+24,0.0,1.401298464324817e-45,0.0
0.0,0.0,0.0,0.0
0.0,0.0,1.7875279794976718e+24,0.0
0.0,0.0,0.0,0.0
0.0,0.0,0.0,0.0
1.7875292765343645e+24,0.0,1.401298464324817e-45,0.0
0.0,0.0,0.0,0.0
0.0,0.0,1.7875373469848967e+24,0.0
0.0,0.0,0.0,0.0
0.0,0.0,0.0,0.0
1.7875386440215894e+24,0.0,1.401298464324817e-45,0.0
0.0,0.0,0.0,0.0
0.0,0.0,1.7875467144721217e+24,0.0
0.0,0.0,0.0,0.0
0.0,0.0,0.0,0.0
1.7875480115088143e+24,0.0,1.401298464324817e-45,0.0
0.0,0.0,0.0,0.0
0.0,0.0,1.7875560819593466e+24,0.0
0.0,0.0,0.0,0.0
0.0,0.0,0.0,0.0
1.7875572348808512e+24,0.0,1.401298464324817e-45,0.0
0.0,0.0,0.0,0.0
0.0,0.0,1.7875654494465715e+24,0.0
0.0,0.0,0.0,0.0
0.0,0.0,0.0,0.0
1.7875666023680761e+24,0.0,1.401298464324817e-45,0.0
0.0,0.0,0.0,0.0
0.0,0.0,1.7875748169337965e+24,0.0
0.0,0.0,0.0,0.0
0.0,0.0,0.0,0.0
1.787575969855301e+24,0.0,1.401298464324817e-45,0.0
0.0,0.0,0.0,0.0
0.0,0.0,1.7875841844210214e+24,0.0
0.0,0.0,0.0,0.0
0.0,0.0,0.0,0.0
1.787585337342526e+24,0.0,1.401298464324817e-45,0.0
0.0,0.0,0.0,0.0
0.0,0.0,1.7875935519082463e+24,0.0
0.0,0.0,0.0,0.0
0.0,0.0,0.0,0.0
1.787594704829751e+24,0.0,1.401298464324817e-45,0.0
0.0,0.0,0.0,0.0
0.0,0.0,1.7876029193954713e+24,0.0
0.0,0.0,0.0,0.0
0.0,0.0,0.0,0.0
1.7876040723169759e+24,0.0,1.401298464324817e-45,0.0
0.0,0.0,0.0,0.0
0.0,0.0,1.7876122868826962e+24,0.0
0.0,0.0,0.0,0.0
0.0,0.0,0.0,0.0
1.7876134398042008e+24,0.0,1.401298464324817e-45,0.0
0.0,0.0,0.0,0.0
0.0,0.0,1.787621654369921e+24,0.0
0.0,0.0,0.0,0.0
0.0,0.0,0.0,0.0
1.7876228072914257e+24,0.0,1.401298464324817e-45,0.0
0.0,0.0,0.0,0.0
0.0,0.0,1.787631021857146e+24,0.0
0.0,0.0,0.0,0.0
0.0,0.0,0.0,0.0
1.7876321747786506e+24,0.0,1.401298464324817e-45,0.0
0.0,0.0,0.0,0.0
0.0,0.0,1.787640389344371e+24,0.0
0.0,0.0,0.0,0.0
0.0,0.0,0.0,0.0
1.7876415422658756e+24,0.0,1.401298464324817e-45,0.0
0.0,0.0,0.0,0.0
0.0,0.0,1.787649756831596e+24,0.0
0.0,0.0,0.0,0.0
0.0,0.0,0.0,0.0
1.7876509097531005e+24,0.0,1.401298464324817e-45,0.0
0.0,0.0,0.0,0.0
0.0,0.0,1.7876591243188208e+24,0.0
0.0,0.0,0.0,0.0
0.0,0.0,0.0,0.0
1.7876602772403254e+24,0.0,1.401298464324817e-45,0.0
0.0,0.0,0.0,0.0
0.0,0.0,1.7876684918060458e+24,0.0
0.0,0.0,0.0,0.0
0.0,0.0,0.0,0.0
1.7876696447275504e+24,0.0,1.401298464324817e-45,0.0
0.0,0.0,0.0,0.0
0.0,0.0,1.7876778592932707e+24,0.0
0.0,0.0,0.0,0.0
0.0,0.0,0.0,0.0
1.7876790122147753e+24,0.0,1.401298464324817e-45,0.0
0.0,0.0,0.0,0.0
0.0,0.0,1.7876872267804956e+24,0.0
0.0,0.0,0.0,0.0
0.0,0.0,0.0,0.0
1.7876883797020002e+24,0.0,1.401298464324817e-45,0.0
0.0,0.0,0.0,0.0
0.0,0.0,1.7876964501525325e+24,0.0
0.0,0.0,0.0,0.0
0.0,0.0,0.0,0.0
1.7876977471892252e+24,0.0,1.401298464324817e-45,0.0
0.0,0.0,0.0,0.0
0.0,0.0,1.7877058176397574e+24,0.0
0.0,0.0,0.0,0.0
0.0,0.0,0.0,0.0
1.78770711467645e+24,0.0,1.401298464324817e-45,0.0
0.0,0.0,0.0,0.0
0.0,0.0,1.7877151851269823e+24,0.0
0.0,0.0,0.0,0.0
0.0,0.0,0.0,0.0
1.787716338048487e+24,0.0,1.401298464324817e-45,0.0
0.0,0.0,0.0,0.0
0.0,0.0,1.7877245526142073e+24,0.0
0.0,0.0,0.0,0.0
0.0,0.0,0.0,0.0
1.787725705535712e+24,0.0,1.401298464324817e-45,0.0
0.0,0.0,0.0,0.0
0.0,0.0,1.7877339201014322e+24,0.0
0.0,0.0,0.0,0.0
0.0,0.0,0.0,0.0
1.7877350730229368e+24,0.0,1.401298464324817e-45,0.0
0.0,0.0,0.0,0.0
0.0,0.0,1.787743287588657e+24,0.0
0.0,0.0,0.0,0.0
0.0,0.0,0.0,0.0
1.7877444405101617e+24,0.0,1.401298464324817e-45,0.0
0.0,0.0,0.0,0.0
0.0,0.0,1.787752655075882e+24,0.0
0.0,0.0,0.0,0.0
0.0,0.0,0.0,0.0
1.7877538079973867e+24,0.0,1.401298464324817e-45,0.0
0.0,0.0,0.0,0.0
0.0,0.0,1.787762022563107e+24,0.0
0.0,0.0,0.0,0.0
0.0,0.0,0.0,0.0
1.7877631754846116e+24,0.0,1.401298464324817e-45,0.0
0.0,0.0,0.0,0.0
0.0,0.0,1.787771390050332e+24,0.0
0.0,0.0,0.0,0.0
0.0,0.0,0.0,0.0
1.7877725429718365e+24,0.0,1.401298464324817e-45,0.0
0.0,0.0,0.0,0.0
0.0,0.0,1.7877807575375569e+24,0.0
0.0,0.0,0.0,0.0
0.0,0.0,0.0,0.0
1.7877819104590615e+24,0.0,1.401298464324817e-45,0.0
0.0,0.0,0.0,0.0
0.0,0.0,1.7877901250247818e+24,0.0
0.0,0.0,0.0,0.0
0.0,0.0,0.0,0.0
1.7877912779462864e+24,0.0,1.401298464324817e-45,0.0
0.0,0.0,0.0,0.0
0.0,0.0,1.7877994925120067e+24,0.0
0.0,0.0,0.0,0.0
0.0,0.0,0.0,0.0
1.7878006454335113e+24,0.0,1.401298464324817e-45,0.0
0.0,0.0,0.0,0.0
0.0,0.0,1.7878088599992316e+24,0.0
0.0,0.0,0.0,0.0
0.0,0.0,0.0,0.0
1.7878100129207363e+24,0.0,1.401298464324817e-45,0.0
0.0,0.0,0.0,0.0
0.0,0.0,1.7878182274864566e+24,0.0
0.0,0.0,0.0,0.0
0.0,0.0,0.0,0.0
1.7878193804079612e+24,0.0,1.401298464324817e-45,0.0
0.0,0.0,0.0,0.0
0.0,0.0,1.7878275949736815e+24,0.0
0.0,0.0,0.0,0.0
0.0,0.0,0.0,0.0
1.787828747895186e+24,0.0,1.401298464324817e-45,0.0
0.0,0.0,0.0,0.0
0.0,0.0,1.7878369624609064e+24,0.0
0.0,0.0,0.0,0.0
0.0,0.0,0.0,0.0
1.787838115382411e+24,0.0,1.401298464324817e-45,0.0
0.0,0.0,0.0,0.0
0.0,0.0,1.7878463299481314e+24,0.0
0.0,0.0,0.0,0.0
0.0,0.0,0.0,0.0
1.787847482869636e+24,0.0,1.401298464324817e-45,0.0
0.0,0.0,0.0,0.0
0.0,0.0,1.7878555533201682e+24,0.0
0.0,0.0,0.0,0.0
0.0,0.0,0.0,0.0
1.787856850356861e+24,0.0,1.401298464324817e-45,0.0
0.0,0.0,0.0,0.0
0.0,0.0,1.7878649208073932e+24,0.0
0.0,0.0,0.0,0.0
0.0,0.0,0.0,0.0
1.7878660737288978e+24,0.0,1.401298464324817e-45,0.0
0.0,0.0,0.0,0.0
0.0,0.0,1.787874288294618e+24,0.0
0.0,0.0,0.0,0.0
0.0,0.0,0.0,0.0
1.7878754412161227e+24,0.0,1.401298464324817e-45,0.0
0.0,0.0,0.0,0.0
0.0,0.0,1.787883655781843e+24,0.0
0.0,0.0,0.0,0.0
0.0,0.0,0.0,0.0
1.7878848087033476e+24,0.0,1.401298464324817e-45,0.0
0.0,0.0,0.0,0.0
0.0,0.0,1.787893023269068e+24,0.0
0.0,0.0,0.0,0.0
0.0,0.0,0.0,0.0
1.7878941761905726e+24,0.0,1.401298464324817e-45,0.0
0.0,0.0,0.0,0.0
0.0,0.0,1.787902390756293e+24,0.0
0.0,0.0,0.0,0.0
0.0,0.0,0.0,0.0
1.7879035436777975e+24,0.0,1.401298464324817e-45,0.0
0.0,0.0,0.0,0.0
0.0,0.0,1.7879117582435178e+24,0.0
0.0,0.0,0.0,0.0
0.0,0.0,0.0,0.0
1.7879129111650224e+24,0.0,1.401298464324817e-45,0.0
0.0,0.0,0.0,0.0
0.0,0.0,1.7879211257307427e+24,0.0
0.0,0.0,0.0,0.0
0.0,0.0,0.0,0.0
1.7879222786522473e+24,0.0,1.401298464324817e-45,0.0
0.0,0.0,0.0,0.0
0.0,0.0,1.7879304932179677e+24,0.0
0.0,0.0,0.0,0.0
0.0,0.0,0.0,0.0
1.7879316461394723e+24,0.0,1.401298464324817e-45,0.0
0.0,0.0,0.0,0.0
0.0,0.0,1.7879398607051926e+24,0.0
0.0,0.0,0.0,0.0
0.0,0.0,0.0,0.0
1.7879410136266972e+24,0.0,1.401298464324817e-45,0.0
0.0,0.0,0.0,0.0
0.0,0.0,1.7879492281924175e+24,0.0
0.0,0.0,0.0,0.0
0.0,0.0,0.0,0.0
1.7879503811139221e+24,0.0,1.401298464324817e-45,0.0
0.0,0.0,0.0,0.0
0.0,0.0,1.7879585956796425e+24,0.0
0.0,0.0,0.0,0.0
0.0,0.0,0.0,0.0
1.787959748601147e+24,0.0,1.401298464324817e-45,0.0
0.0,0.0,0.0,0.0
0.0,0.0,1.7879679631668674e+24,0.0
0.0,0.0,0.0,0.0
0.0,0.0,0.0,0.0
1.787969116088372e+24,0.0,1.401298464324817e-45,0.0
0.0,0.0,0.0,0.0
0.0,0.0,1.7879773306540923e+24,0.0
0.0,0.0,0.0,0.0
0.0,0.0,0.0,0.0
1.787978483575597e+24,0.0,1.401298464324817e-45,0.0
0.0,0.0,0.0,0.0
0.0,0.0,1.7879866981413173e+24,0.0
0.0,0.0,0.0,0.0
0.0,0.0,0.0,0.0
1.7879878510628219e+24,0.0,1.401298464324817e-45,0.0
0.0,0.0,0.0,0.0
0.0,0.0,1.787995921513354e+24,0.0
0.0,0.0,0.0,0.0
0.0,0.0,0.0,0.0
1.7879970744348587e+24,0.0,1.401298464324817e-45,0.0
0.0,0.0,0.0,0.0
0.0,0.0,1.788005289000579e+24,0.0
0.0,0.0,0.0,0.0
0.0,0.0,0.0,0.0
1.7880064419220836e+24,0.0,1.401298464324817e-45,0.0
0.0,0.0,0.0,0.0
0.0,0.0,1.788014512372616e+24,0.0
0.0,0.0,0.0,0.0
0.0,0.0,0.0,0.0
1.7880156652941205e+24,0.0,1.401298464324817e-45,0.0
0.0,0.0,0.0,0.0
0.0,0.0,1.7880238798598408e+24,0.0
0.0,0.0,0.0,0.0
0.0,0.0,0.0,0.0
1.7880250327813454e+24,0.0,1.401298464324817e-45,0.0
0.0,0.0,0.0,0.0
0.0,0.0,1.7880331032318777e+24,0.0
0.0,0.0,0.0,0.0
0.0,0.0,0.0,0.0
1.7880342561533823e+24,0.0,1.401298464324817e-45,0.0
0.0,0.0,0.0,0.0
0.0,0.0,1.7880424707191026e+24,0.0
0.0,0.0,0.0,0.0
0.0,0.0,0.0,0.0
1.7880436236406072e+24,0.0,1.401298464324817e-45,0.0
0.0,0.0,0.0,0.0
0.0,0.0,1.7880516940911395e+24,0.0
0.0,0.0,0.0,0.0
0.0,0.0,0.0,0.0
1.788052847012644e+24,0.0,1.401298464324817e-45,0.0
0.0,0.0,0.0,0.0
0.0,0.0,1.7880610615783644e+24,0.0
0.0,0.0,0.0,0.0
0.0,0.0,0.0,0.0
1.788062214499869e+24,0.0,1.401298464324817e-45,0.0
0.0,0.0,0.0,0.0
0.0,0.0,1.7880702849504013e+24,0.0
0.0,0.0,0.0,0.0
0.0,0.0,0.0,0.0
1.7880714378719059e+24,0.0,1.401298464324817e-45,0.0
0.0,0.0,0.0,0.0
0.0,0.0,1.7880796524376262e+24,0.0
0.0,0.0,0.0,0.0
0.0,0.0,0.0,0.0
1.7880808053591308e+24,0.0,1.401298464324817e-45,0.0
0.0,0.0,0.0,0.0
0.0,0.0,1.788088875809663e+24,0.0
0.0,0.0,0.0,0.0
0.0,0.0,0.0,0.0
1.7880900287311676e+24,0.0,1.401298464324817e-45,0.0
0.0,0.0,0.0,0.0
0.0,0.0,1.788098243296888e+24,0.0
0.0,0.0,0.0,0.0
0.0,0.0,0.0,0.0
1.7880993962183926e+24,0.0,1.401298464324817e-45,0.0
0.0,0.0,0.0,0.0
0.0,0.0,1.7881074666689248e+24,0.0
0.0,0.0,0.0,0.0
0.0,0.0,0.0,0.0
1.7881086195904294e+24,0.0,1.401298464324817e-45,0.0
0.0,0.0,0.0,0.0
0.0,0.0,1.7881168341561498e+24,0.0
0.0,0.0,0.0,0.0
0.0,0.0,0.0,0.0
1.7881179870776544e+24,0.0,1.401298464324817e-45,0.0
0.0,0.0,0.0,0.0
0.0,0.0,1.7881260575281866e+24,0.0
0.0,0.0,0.0,0.0
0.0,0.0,0.0,0.0
1.7881272104496912e+24,0.0,1.401298464324817e-45,0.0
0.0,0.0,0.0,0.0
0.0,0.0,1.7881354250154115e+24,0.0
0.0,0.0,0.0,0.0
0.0,0.0,0.0,0.0
1.7881365779369161e+24,0.0,1.401298464324817e-45,0.0
0.0,0.0,0.0,0.0
0.0,0.0,1.7881446483874484e+24,0.0
0.0,0.0,0.0,0.0
0.0,0.0,0.0,0.0
1.788145801308953e+24,0.0,1.401298464324817e-45,0.0
0.0,0.0,0.0,0.0
0.0,0.0,1.7881540158746733e+24,0.0
0.0,0.0,0.0,0.0
0.0,0.0,0.0,0.0
1.788155168796178e+24,0.0,1.401298464324817e-45,0.0
0.0,0.0,0.0,0.0
0.0,0.0,1.7881632392467102e+24,0.0
0.0,0.0,0.0,0.0
0.0,0.0,0.0,0.0
1.7881645362834029e+24,0.0,1.401298464324817e-45,0.0
0.0,0.0,0.0,0.0
0.0,0.0,1.788172606733935e+24,0.0
0.0,0.0,0.0,0.0
0.0,0.0,0.0,0.0
1.7881737596554397e+24,0.0,1.401298464324817e-45,0.0
0.0,0.0,0.0,0.0
0.0,0.0,1.78818197422116e+24,0.0
0.0,0.0,0.0,0.0
0.0,0.0,0.0,0.0
1.7881831271426646e+24,0.0,1.401298464324817e-45,0.0
0.0,0.0,0.0,0.0
0.0,0.0,1.788191341708385e+24,0.0
0.0,0.0,0.0,0.0
0.0,0.0,0.0,0.0
1.7881924946298896e+24,0.0,1.401298464324817e-45,0.0
0.0,0.0,0.0,0.0
0.0,0.0,1.78820070919561e+24,0.0
0.0,0.0,0.0,0.0
0.0,0.0,0.0,0.0
1.7882018621171145e+24,0.0,1.401298464324817e-45,0.0
0.0,0.0,0.0,0.0
0.0,0.0,1.7882100766828348e+24,0.0
0.0,0.0,0.0,0.0
0.0,0.0,0.0,0.0
1.7882112296043394e+24,0.0,1.401298464324817e-45,0.0
0.0,0.0,0.0,0.0
0.0,0.0,1.7882193000548717e+24,0.0
0.0,0.0,0.0,0.0
0.0,0.0,0.0,0.0
1.7882204529763763e+24,0.0,1.401298464324817e-45,0.0
0.0,0.0,0.0,0.0
0.0,0.0,1.7882286675420966e+24,0.0
0.0,0.0,0.0,0.0
0.0,0.0,0.0,0.0
1.7882298204636012e+24,0.0,1.401298464324817e-45,0.0
0.0,0.0,0.0,0.0
0.0,0.0,1.7882378909141335e+24,0.0
0.0,0.0,0.0,0.0
0.0,0.0,0.0,0.0
1.788239043835638e+24,0.0,1.401298464324817e-45,0.0
0.0,0.0,0.0,0.0
0.0,0.0,1.7882472584013584e+24,0.0
0.0,0.0,0.0,0.0
0.0,0.0,0.0,0.0
1.788248411322863e+24,0.0,1.401298464324817e-45,0.0
0.0,0.0,0.0,0.0
0.0,0.0,1.7882564817733953e+24,0.0
0.0,0.0,0.0,0.0
0.0,0.0,0.0,0.0
1.7882576346948999e+24,0.0,1.401298464324817e-45,0.0
0.0,0.0,0.0,0.0
0.0,0.0,1.7882658492606202e+24,0.0
0.0,0.0,0.0,0.0
0.0,0.0,0.0,0.0
1.7882670021821248e+24,0.0,1.401298464324817e-45,0.0
0.0,0.0,0.0,0.0
0.0,0.0,1.788275216747845e+24,0.0
0.0,0.0,0.0,0.0
0.0,0.0,0.0,0.0
1.7882763696693497e+24,0.0,1.401298464324817e-45,0.0
0.0,0.0,0.0,0.0
0.0,0.0,1.788284440119882e+24,0.0
0.0,0.0,0.0,0.0
0.0,0.0,0.0,0.0
1.7882855930413866e+24,0.0,1.401298464324817e-45,0.0
0.0,0.0,0.0,0.0
0.0,0.0,1.788293807607107e+24,0.0
0.0,0.0,0.0,0.0
0.0,0.0,0.0,0.0
1.7882949605286115e+24,0.0,1.401298464324817e-45,0.0
0.0,0.0,0.0,0.0
0.0,0.0,1.7883031750943318e+24,0.0
0.0,0.0,0.0,0.0
0.0,0.0,0.0,0.0
1.7883043280158364e+24,0.0,1.401298464324817e-45,0.0
0.0,0.0,0.0,0.0
0.0,0.0,1.7883123984663687e+24,0.0
0.0,0.0,0.0,0.0
0.0,0.0,0.0,0.0
1.7883135513878733e+24,0.0,1.401298464324817e-45,0.0
0.0,0.0,0.0,0.0
0.0,0.0,1.7883216218384055e+24,0.0
0.0,0.0,0.0,0.0
0.0,0.0,0.0,0.0
1.7883229188750982e+24,0.0,1.401298464324817e-45,0.0
0.0,0.0,0.0,0.0
0.0,0.0,1.7883309893256305e+24,0.0
0.0,0.0,0.0,0.0
0.0,0.0,0.0,0.0
1.788332142247135e+24,0.0,1.401298464324817e-45,0.0
0.0,0.0,0.0,0.0
0.0,0.0,1.7883403568128554e+24,0.0
0.0,0.0,0.0,0.0
0.0,0.0,0.0,0.0
1.78834150973436e+24,0.0,1.401298464324817e-45,0.0
0.0,0.0,0.0,0.0
0.0,0.0,1.7883495801848923e+24,0.0
0.0,0.0,0.0,0.0
0.0,0.0,0.0,0.0
1.788350733106397e+24,0.0,1.401298464324817e-45,0.0
0.0,0.0,0.0,0.0
0.0,0.0,1.7883589476721172e+24,0.0
0.0,0.0,0.0,0.0
0.0,0.0,0.0,0.0
1.7883601005936218e+24,0.0,1.401298464324817e-45,0.0
0.0,0.0,0.0,0.0
0.0,0.0,1.788368171044154e+24,0.0
0.0,0.0,0.0,0.0
0.0,0.0,0.0,0.0
1.7883693239656587e+24,0.0,1.401298464324817e-45,0.0
0.0,0.0,0.0,0.0
0.0,0.0,1.788377538531379e+24,0.0
0.0,0.0,0.0,0.0
0.0,0.0,0.0,0.0
1.7883786914528836e+24,0.0,1.401298464324817e-45,0.0
0.0,0.0,0.0,0.0
0.0,0.0,1.7883867619034158e+24,0.0
0.0,0.0,0.0,0.0
0.0,0.0,0.0,0.0
1.7883879148249204e+24,0.0,1.401298464324817e-45,0.0
0.0,0.0,0.0,0.0
0.0,0.0,1.7883961293906408e+24,0.0
0.0,0.0,0.0,0.0
0.0,0.0,0.0,0.0
1.7883972823121454e+24,0.0,1.401298464324817e-45,0.0
0.0,0.0,0.0,0.0
0.0,0.0,1.7884053527626776e+24,0.0
0.0,0.0,0.0,0.0
0.0,0.0,0.0,0.0
1.7884065056841822e+24,0.0,1.401298464324817e-45,0.0
0.0,0.0,0.0,0.0
0.0,0.0,1.7884147202499025e+24,0.0
0.0,0.0,0.0,0.0
0.0,0.0,0.0,0.0
1.7884158731714072e+24,0.0,1.401298464324817e-45,0.0
0.0,0.0,0.0,0.0
0.0,0.0,1.7884239436219394e+24,0.0
0.0,0.0,0.0,0.0
0.0,0.0,0.0,0.0
1.788425096543444e+24,0.0,1.401298464324817e-45,0.0
0.0,0.0,0.0,0.0
0.0,0.0,1.7884333111091643e+24,0.0
0.0,0.0,0.0,0.0
0.0,0.0,0.0,0.0
1.788434464030669e+24,0.0,1.401298464324817e-45,0.0
0.0,0.0,0.0,0.0
0.0,0.0,1.7884425344812012e+24,0.0
0.0,0.0,0.0,0.0
0.0,0.0,0.0,0.0
1.7884436874027058e+24,0.0,1.401298464324817e-45,0.0
0.0,0.0,0.0,0.0
0.0,0.0,1.788451901968426e+24,0.0
0.0,0.0,0.0,0.0
0.0,0.0,0.0,0.0
1.7884530548899307e+24,0.0,1.401298464324817e-45,0.0
0.0,0.0,0.0,0.0
0.0,0.0,1.788461125340463e+24,0.0
0.0,0.0,0.0,0.0
0.0,0.0,0.0,0.0
1.7884622782619676e+24,0.0,1.401298464324817e-45,0.0
0.0,0.0,0.0,0.0
0.0,0.0,1.788470492827688e+24,0.0
0.0,0.0,0.0,0.0
0.0,0.0,0.0,0.0
1.7884716457491925e+24,0.0,1.401298464324817e-45,0.0
0.0,0.0,0.0,0.0
0.0,0.0,1.7884798603149128e+24,0.0
0.0,0.0,0.0,0.0
0.0,0.0,0.0,0.0
1.7884810132364174e+24,0.0,1.401298464324817e-45,0.0
0.0,0.0,0.0,0.0
0.0,0.0,1.7884892278021378e+24,0.0
0.0,0.0,0.0,0.0
0.0,0.0,0.0,0.0
1.7884903807236424e+24,0.0,1.401298464324817e-45,0.0
0.0,0.0,0.0,0.0
0.0,0.0,1.7884985952893627e+24,0.0
0.0,0.0,0.0,0.0
0.0,0.0,0.0,0.0
1.7884997482108673e+24,0.0,1.401298464324817e-45,0.0
0.0,0.0,0.0,0.0
0.0,0.0,1.7885079627765876e+24,0.0
0.0,0.0,0.0,0.0
0.0,0.0,0.0,0.0
1.7885091156980922e+24,0.0,1.401298464324817e-45,0.0
0.0,0.0,0.0,0.0
0.0,0.0,1.7885173302638126e+24,0.0
0.0,0.0,0.0,0.0
0.0,0.0,0.0,0.0
1.7885184831853172e+24,0.0,1.401298464324817e-45,0.0
0.0,0.0,0.0,0.0
0.0,0.0,1.7885266977510375e+24,0.0
0.0,0.0,0.0,0.0
0.0,0.0,0.0,0.0
1.788527850672542e+24,0.0,1.401298464324817e-45,0.0
0.0,0.0,0.0,0.0
0.0,0.0,1.7885360652382624e+24,0.0
0.0,0.0,0.0,0.0
0.0,0.0,0.0,0.0
1.788537218159767e+24,0.0,1.401298464324817e-45,0.0
0.0,0.0,0.0,0.0
0.0,0.0,1.7885452886102993e+24,0.0
0.0,0.0,0.0,0.0
0.0,0.0,0.0,0.0
1.788546585646992e+24,0.0,1.401298464324817e-45,0.0
0.0,0.0,0.0,0.0
0.0,0.0,1.7885546560975242e+24,0.0
0.0,0.0,0.0,0.0
0.0,0.0,0.0,0.0
1.788555953134217e+24,0.0,1.401298464324817e-45,0.0
0.0,0.0,0.0,0.0
0.0,0.0,1.788564023584749e+24,0.0
0.0,0.0,0.0,0.0
0.0,0.0,0.0,0.0
1.7885653206214418e+24,0.0,1.401298464324817e-45,0.0
0.0,0.0,0.0,0.0
0.0,0.0,1.788573391071974e+24,0.0
0.0,0.0,0.0,0.0
0.0,0.0,0.0,0.0
1.7885745439934787e+24,0.0,1.401298464324817e-45,0.0
0.0,0.0,0.0,0.0
0.0,0.0,1.788582758559199e+24,0.0
0.0,0.0,0.0,0.0
0.0,0.0,0.0,0.0
1.7885840555958917e+24,0.0,1.401298464324817e-45,0.0
0.0,0.0,0.0,0.0
0.0,0.0,1.788592126046424e+24,0.0
0.0,0.0,0.0,0.0
0.0,0.0,0.0,0.0
1.7885932789679285e+24,0.0,1.401298464324817e-45,0.0
0.0,0.0,0.0,0.0
0.0,0.0,1.7886014935336489e+24,0.0
0.0,0.0,0.0,0.0
0.0,0.0,0.0,0.0
1.7886026464551535e+24,0.0,1.401298464324817e-45,0.0
0.0,0.0,0.0,0.0
0.0,0.0,1.7886108610208738e+24,0.0
0.0,0.0,0.0,0.0
0.0,0.0,0.0,0.0
1.7886120139423784e+24,0.0,1.401298464324817e-45,0.0
0.0,0.0,0.0,0.0
0.0,0.0,1.7886200843929106e+24,0.0
0.0,0.0,0.0,0.0
0.0,0.0,0.0,0.0
1.7886212373144152e+24,0.0,1.401298464324817e-45,0.0
0.0,0.0,0.0,0.0
0.0,0.0,1.7886294518801356e+24,0.0
0.0,0.0,0.0,0.0
0.0,0.0,0.0,0.0
1.7886306048016402e+24,0.0,1.401298464324817e-45,0.0
0.0,0.0,0.0,0.0
0.0,0.0,1.7886386752521724e+24,0.0
0.0,0.0,0.0,0.0
0.0,0.0,0.0,0.0
1.788639828173677e+24,0.0,1.401298464324817e-45,0.0
0.0,0.0,0.0,0.0
0.0,0.0,1.7886480427393974e+24,0.0
0.0,0.0,0.0,0.0
0.0,0.0,0.0,0.0
1.788649195660902e+24,0.0,1.401298464324817e-45,0.0
0.0,0.0,0.0,0.0
0.0,0.0,1.7886572661114342e+24,0.0
0.0,0.0,0.0,0.0
0.0,0.0,0.0,0.0
1.788658563148127e+24,0.0,1.401298464324817e-45,0.0
0.0,0.0,0.0,0.0
0.0,0.0,1.7886666335986591e+24,0.0
0.0,0.0,0.0,0.0
0.0,0.0,0.0,0.0
1.7886677865201637e+24,0.0,1.401298464324817e-45,0.0
0.0,0.0,0.0,0.0
0.0,0.0,1.788675856970696e+24,0.0
0.0,0.0,0.0,0.0
0.0,0.0,0.0,0.0
1.7886771540073887e+24,0.0,1.401298464324817e-45,0.0
0.0,0.0,0.0,0.0
0.0,0.0,1.788685224457921e+24,0.0
0.0,0.0,0.0,0.0
0.0,0.0,0.0,0.0
1.7886863773794255e+24,0.0,1.401298464324817e-45,0.0
0.0,0.0,0.0,0.0
0.0,0.0,1.7886945919451459e+24,0.0
0.0,0.0,0.0,0.0
0.0,0.0,0.0,0.0
1.7886957448666505e+24,0.0,1.401298464324817e-45,0.0
0.0,0.0,0.0,0.0
0.0,0.0,1.7887038153171827e+24,0.0
0.0,0.0,0.0,0.0
0.0,0.0,0.0,0.0
1.7887049682386873e+24,0.0,1.401298464324817e-45,0.0
0.0,0.0,0.0,0.0
0.0,0.0,1.7887131828044076e+24,0.0
0.0,0.0,0.0,0.0
0.0,0.0,0.0,0.0
1.7887143357259123e+24,0.0,1.401298464324817e-45,0.0
0.0,0.0,0.0,0.0
0.0,0.0,1.7887224061764445e+24,0.0
0.0,0.0,0.0,0.0
0.0,0.0,0.0,0.0
1.788723559097949e+24,0.0,1.401298464324817e-45,0.0
0.0,0.0,0.0,0.0
0.0,0.0,1.7887317736636694e+24,0.0
0.0,0.0,0.0,0.0
0.0,0.0,0.0,0.0
1.788732926585174e+24,0.0,1.401298464324817e-45,0.0
0.0,0.0,0.0,0.0
0.0,0.0,1.7887409970357063e+24,0.0
0.0,0.0,0.0,0.0
0.0,0.0,0.0,0.0
1.788742149957211e+24,0.0,1.401298464324817e-45,0.0
0.0,0.0,0.0,0.0
0.0,0.0,1.7887503645229312e+24,0.0
0.0,0.0,0.0,0.0
0.0,0.0,0.0,0.0
1.7887515174444358e+24,0.0,1.401298464324817e-45,0.0
0.0,0.0,0.0,0.0
0.0,0.0,1.788759587894968e+24,0.0
0.0,0.0,0.0,0.0
0.0,0.0,0.0,0.0
1.7887607408164727e+24,0.0,1.401298464324817e-45,0.0
0.0,0.0,0.0,0.0
0.0,0.0,1.788768955382193e+24,0.0
0.0,0.0,0.0,0.0
0.0,0.0,0.0,0.0
1.7887701083036976e+24,0.0,1.401298464324817e-45,0.0
0.0,0.0,0.0,0.0
0.0,0.0,1.7887781787542299e+24,0.0
0.0,0.0,0.0,0.0
0.0,0.0,0.0,0.0
1.7887794757909225e+24,0.0,1.401298464324817e-45,0.0
0.0,0.0,0.0,0.0
0.0,0.0,1.7887875462414548e+24,0.0
0.0,0.0,0.0,0.0
0.0,0.0,0.0,0.0
1.7887888432781475e+24,0.0,1.401298464324817e-45,0.0
0.0,0.0,0.0,0.0
0.0,0.0,1.7887969137286797e+24,0.0
0.0,0.0,0.0,0.0
0.0,0.0,0.0,0.0
1.7887980666501843e+24,0.0,1.401298464324817e-45,0.0
0.0,0.0,0.0,0.0
0.0,0.0,1.7888062812159046e+24,0.0
0.0,0.0,0.0,0.0
0.0,0.0,0.0,0.0
1.7888074341374093e+24,0.0,1.401298464324817e-45,0.0
0.0,0.0,0.0,0.0
0.0,0.0,1.7888156487031296e+24,0.0
0.0,0.0,0.0,0.0
0.0,0.0,0.0,0.0
1.7888168016246342e+24,0.0,1.401298464324817e-45,0.0
0.0,0.0,0.0,0.0
0.0,0.0,1.7888250161903545e+24,0.0
0.0,0.0,0.0,0.0
0.0,0.0,0.0,0.0
1.788826169111859e+24,0.0,1.401298464324817e-45,0.0
0.0,0.0,0.0,0.0
0.0,0.0,1.7888343836775794e+24,0.0
0.0,0.0,0.0,0.0
0.0,0.0,0.0,0.0
1.788835536599084e+24,0.0,1.401298464324817e-45,0.0
0.0,0.0,0.0,0.0
0.0,0.0,1.7888437511648044e+24,0.0
0.0,0.0,0.0,0.0
0.0,0.0,0.0,0.0
1.788844904086309e+24,0.0,1.401298464324817e-45,0.0
0.0,0.0,0.0,0.0
0.0,0.0,1.7888531186520293e+24,0.0
0.0,0.0,0.0,0.0
0.0,0.0,0.0,0.0
1.788854271573534e+24,0.0,1.401298464324817e-45,0.0
0.0,0.0,0.0,0.0
0.0,0.0,1.7888624861392542e+24,0.0
0.0,0.0,0.0,0.0
0.0,0.0,0.0,0.0
1.7888636390607588e+24,0.0,1.401298464324817e-45,0.0
0.0,0.0,0.0,0.0
0.0,0.0,1.7888718536264792e+24,0.0
0.0,0.0,0.0,0.0
0.0,0.0,0.0,0.0
1.7888730065479838e+24,0.0,1.401298464324817e-45,0.0
0.0,0.0,0.0,0.0
0.0,0.0,1.788881221113704e+24,0.0
0.0,0.0,0.0,0.0
0.0,0.0,0.0,0.0
1.7888823740352087e+24,0.0,1.401298464324817e-45,0.0
0.0,0.0,0.0,0.0
0.0,0.0,1.788890588600929e+24,0.0
0.0,0.0,0.0,0.0
0.0,0.0,0.0,0.0
1.7888917415224336e+24,0.0,1.401298464324817e-45,0.0
0.0,0.0,0.0,0.0
0.0,0.0,1.788899956088154e+24,0.0
0.0,0.0,0.0,0.0
0.0,0.0,0.0,0.0
1.7889011090096586e+24,0.0,1.401298464324817e-45,0.0
0.0,0.0,0.0,0.0
0.0,0.0,1.788909323575379e+24,0.0
0.0,0.0,0.0,0.0
0.0,0.0,0.0,0.0
1.7889104764968835e+24,0.0,1.401298464324817e-45,0.0
0.0,0.0,0.0,0.0
0.0,0.0,1.7889186910626038e+24,0.0
0.0,0.0,0.0,0.0
0.0,0.0,0.0,0.0
1.7889198439841084e+24,0.0,1.401298464324817e-45,0.0
0.0,0.0,0.0,0.0
0.0,0.0,1.7889279144346407e+24,0.0
0.0,0.0,0.0,0.0
0.0,0.0,0.0,0.0
1.7889290673561453e+24,0.0,1.401298464324817e-45,0.0
0.0,0.0,0.0,0.0
0.0,0.0,1.7889372819218656e+24,0.0
0.0,0.0,0.0,0.0
0.0,0.0,0.0,0.0
1.7889384348433702e+24,0.0,1.401298464324817e-45,0.0
0.0,0.0,0.0,0.0
0.0,0.0,1.7889465052939025e+24,0.0
0.0,0.0,0.0,0.0
0.0,0.0,0.0,0.0
1.788947658215407e+24,0.0,1.401298464324817e-45,0.0
0.0,0.0,0.0,0.0
0.0,0.0,1.7889558727811274e+24,0.0
0.0,0.0,0.0,0.0
0.0,0.0,0.0,0.0
1.788957025702632e+24,0.0,1.401298464324817e-45,0.0
0.0,0.0,0.0,0.0
0.0,0.0,1.7889650961531642e+24,0.0
0.0,0.0,0.0,0.0
0.0,0.0,0.0,0.0
1.7889662490746688e+24,0.0,1.401298464324817e-45,0.0
0.0,0.0,0.0,0.0
0.0,0.0,1.7889744636403892e+24,0.0
0.0,0.0,0.0,0.0
0.0,0.0,0.0,0.0
1.7889756165618938e+24,0.0,1.401298464324817e-45,0.0
0.0,0.0,0.0,0.0
0.0,0.0,1.788983687012426e+24,0.0
0.0,0.0,0.0,0.0
0.0,0.0,0.0,0.0
1.7889848399339306e+24,0.0,1.401298464324817e-45,0.0
0.0,0.0,0.0,0.0
0.0,0.0,1.788993054499651e+24,0.0
0.0,0.0,0.0,0.0
0.0,0.0,0.0,0.0
1.7889942074211556e+24,0.0,1.401298464324817e-45,0.0
0.0,0.0,0.0,0.0
0.0,0.0,1.7890022778716878e+24,0.0
0.0,0.0,0.0,0.0
0.0,0.0,0.0,0.0
1.7890034307931924e+24,0.0,1.401298464324817e-45,0.0
0.0,0.0,0.0,0.0
0.0,0.0,1.7890116453589127e+24,0.0
0.0,0.0,0.0,0.0
0.0,0.0,0.0,0.0
1.7890127982804173e+24,0.0,1.401298464324817e-45,0.0
0.0,0.0,0.0,0.0
0.0,0.0,1.7890208687309496e+24,0.0
0.0,0.0,0.0,0.0
0.0,0.0,0.0,0.0
1.7890220216524542e+24,0.0,1.401298464324817e-45,0.0
0.0,0.0,0.0,0.0
0.0,0.0,1.7890302362181745e+24,0.0
0.0,0.0,0.0,0.0
0.0,0.0,0.0,0.0
1.789031389139679e+24,0.0,1.401298464324817e-45,0.0
0.0,0.0,0.0,0.0
0.0,0.0,1.7890396037053995e+24,0.0
0.0,0.0,0.0,0.0
0.0,0.0,0.0,0.0
1.789040756626904e+24,0.0,1.401298464324817e-45,0.0
0.0,0.0,0.0,0.0
0.0,0.0,1.7890489711926244e+24,0.0
0.0,0.0,0.0,0.0
0.0,0.0,0.0,0.0
1.789050124114129e+24,0.0,1.401298464324817e-45,0.0
0.0,0.0,0.0,0.0
0.0,0.0,1.7890583386798493e+24,0.0
0.0,0.0,0.0,0.0
0.0,0.0,0.0,0.0
1.789059491601354e+24,0.0,1.401298464324817e-45,0.0
0.0,0.0,0.0,0.0
0.0,0.0,1.7890677061670742e+24,0.0
0.0,0.0,0.0,0.0
0.0,0.0,0.0,0.0
1.7890688590885789e+24,0.0,1.401298464324817e-45,0.0
0.0,0.0,0.0,0.0
0.0,0.0,1.789076929539111e+24,0.0
0.0,0.0,0.0,0.0
0.0,0.0,0.0,0.0
1.7890780824606157e+24,0.0,1.401298464324817e-45,0.0
0.0,0.0,0.0,0.0
0.0,0.0,1.789086297026336e+24,0.0
0.0,0.0,0.0,0.0
0.0,0.0,0.0,0.0
1.7890874499478406e+24,0.0,1.401298464324817e-45,0.0
0.0,0.0,0.0,0.0
0.0,0.0,1.789095520398373e+24,0.0
0.0,0.0,0.0,0.0
0.0,0.0,0.0,0.0
1.7890966733198775e+24,0.0,1.401298464324817e-45,0.0
0.0,0.0,0.0,0.0
0.0,0.0,1.7891048878855978e+24,0.0
0.0,0.0,0.0,0.0
0.0,0.0,0.0,0.0
1.7891060408071024e+24,0.0,1.401298464324817e-45,0.0
0.0,0.0,0.0,0.0
0.0,0.0,1.7891141112576347e+24,0.0
0.0,0.0,0.0,0.0
0.0,0.0,0.0,0.0
1.7891152641791393e+24,0.0,1.401298464324817e-45,0.0
0.0,0.0,0.0,0.0
0.0,0.0,1.7891234787448596e+24,0.0
0.0,0.0,0.0,0.0
0.0,0.0,0.0,0.0
1.7891246316663642e+24,0.0,1.401298464324817e-45,0.0
0.0,0.0,0.0,0.0
0.0,0.0,1.7891327021168965e+24,0.0
0.0,0.0,0.0,0.0
0.0,0.0,0.0,0.0
1.789133855038401e+24,0.0,1.401298464324817e-45,0.0
0.0,0.0,0.0,0.0
0.0,0.0,1.7891420696041214e+24,0.0
0.0,0.0,0.0,0.0
0.0,0.0,0.0,0.0
1.789143222525626e+24,0.0,1.401298464324817e-45,0.0
0.0,0.0,0.0,0.0
0.0,0.0,1.7891512929761582e+24,0.0
0.0,0.0,0.0,0.0
0.0,0.0,0.0,0.0
1.7891524458976629e+24,0.0,1.401298464324817e-45,0.0
0.0,0.0,0.0,0.0
0.0,0.0,1.7891606604633832e+24,0.0
0.0,0.0,0.0,0.0
0.0,0.0,0.0,0.0
1.7891618133848878e+24,0.0,1.401298464324817e-45,0.0
0.0,0.0,0.0,0.0
0.0,0.0,1.78916988383542e+24,0.0
0.0,0.0,0.0,0.0
0.0,0.0,0.0,0.0
1.7891710367569246e+24,0.0,1.401298464324817e-45,0.0
0.0,0.0,0.0,0.0
0.0,0.0,1.789179251322645e+24,0.0
0.0,0.0,0.0,0.0
0.0,0.0,0.0,0.0
1.7891804042441496e+24,0.0,1.401298464324817e-45,0.0
0.0,0.0,0.0,0.0
0.0,0.0,1.7891884746946818e+24,0.0
0.0,0.0,0.0,0.0
0.0,0.0,0.0,0.0
1.7891897717313745e+24,0.0,1.401298464324817e-45,0.0
0.0,0.0,0.0,0.0
0.0,0.0,1.7891978421819067e+24,0.0
0.0,0.0,0.0,0.0
0.0,0.0,0.0,0.0
1.7891989951034114e+24,0.0,1.401298464324817e-45,0.0
0.0,0.0,0.0,0.0
0.0,0.0,1.7892072096691317e+24,0.0
0.0,0.0,0.0,0.0
0.0,0.0,0.0,0.0
1.7892083625906363e+24,0.0,1.401298464324817e-45,0.0
0.0,0.0,0.0,0.0
0.0,0.0,1.7892164330411685e+24,0.0
0.0,0.0,0.0,0.0
0.0,0.0,0.0,0.0
1.7892175859626731e+24,0.0,1.401298464324817e-45,0.0
0.0,0.0,0.0,0.0
0.0,0.0,1.7892258005283935e+24,0.0
0.0,0.0,0.0,0.0
0.0,0.0,0.0,0.0
1.789226953449898e+24,0.0,1.401298464324817e-45,0.0
0.0,0.0,0.0,0.0
0.0,0.0,1.7892350239004303e+24,0.0
0.0,0.0,0.0,0.0
0.0,0.0,0.0,0.0
1.789236176821935e+24,0.0,1.401298464324817e-45,0.0
0.0,0.0,0.0,0.0
0.0,0.0,1.7892443913876552e+24,0.0
0.0,0.0,0.0,0.0
0.0,0.0,0.0,0.0
1.7892455443091599e+24,0.0,1.401298464324817e-45,0.0
0.0,0.0,0.0,0.0
0.0,0.0,1.789253614759692e+24,0.0
0.0,0.0,0.0,0.0
0.0,0.0,0.0,0.0
1.7892547676811967e+24,0.0,1.401298464324817e-45,0.0
0.0,0.0,0.0,0.0
0.0,0.0,1.789262982246917e+24,0.0
0.0,0.0,0.0,0.0
0.0,0.0,0.0,0.0
1.7892641351684216e+24,0.0,1.401298464324817e-45,0.0
0.0,0.0,0.0,0.0
0.0,0.0,1.789272205618954e+24,0.0
0.0,0.0,0.0,0.0
0.0,0.0,0.0,0.0
1.7892733585404585e+24,0.0,1.401298464324817e-45,0.0
0.0,0.0,0.0,0.0
0.0,0.0,1.7892815731061788e+24,0.0
0.0,0.0,0.0,0.0
0.0,0.0,0.0,0.0
1.7892827260276834e+24,0.0,1.401298464324817e-45,0.0
0.0,0.0,0.0,0.0
0.0,0.0,1.7892907964782157e+24,0.0
0.0,0.0,0.0,0.0
0.0,0.0,0.0,0.0
1.7892919493997203e+24,0.0,1.401298464324817e-45,0.0
0.0,0.0,0.0,0.0
0.0,0.0,1.7893001639654406e+24,0.0
0.0,0.0,0.0,0.0
0.0,0.0,0.0,0.0
1.7893013168869452e+24,0.0,1.401298464324817e-45,0.0
0.0,0.0,0.0,0.0
0.0,0.0,1.7893093873374775e+24,0.0
0.0,0.0,0.0,0.0
0.0,0.0,0.0,0.0
1.789310540258982e+24,0.0,1.401298464324817e-45,0.0
0.0,0.0,0.0,0.0
0.0,0.0,1.7893187548247024e+24,0.0
0.0,0.0,0.0,0.0
0.0,0.0,0.0,0.0
1.789319907746207e+24,0.0,1.401298464324817e-45,0.0
0.0,0.0,0.0,0.0
0.0,0.0,1.7893279781967392e+24,0.0
0.0,0.0,0.0,0.0
0.0,0.0,0.0,0.0
1.7893291311182439e+24,0.0,1.401298464324817e-45,0.0
0.0,0.0,0.0,0.0
0.0,0.0,1.7893373456839642e+24,0.0
0.0,0.0,0.0,0.0
0.0,0.0,0.0,0.0
1.7893384986054688e+24,0.0,1.401298464324817e-45,0.0
0.0,0.0,0.0,0.0
0.0,0.0,1.789346569056001e+24,0.0
0.0,0.0,0.0,0.0
0.0,0.0,0.0,0.0
1.7893477219775056e+24,0.0,1.401298464324817e-45,0.0
0.0,0.0,0.0,0.0
0.0,0.0,1.789355936543226e+24,0.0
0.0,0.0,0.0,0.0
0.0,0.0,0.0,0.0
1.7893570894647306e+24,0.0,1.401298464324817e-45,0.0
0.0,0.0,0.0,0.0
0.0,0.0,1.7893651599152628e+24,0.0
0.0,0.0,0.0,0.0
0.0,0.0,0.0,0.0
1.7893663128367674e+24,0.0,1.401298464324817e-45,0.0
0.0,0.0,0.0,0.0
0.0,0.0,1.7893745274024877e+24,0.0
0.0,0.0,0.0,0.0
0.0,0.0,0.0,0.0
1.7893756803239924e+24,0.0,1.401298464324817e-45,0.0
0.0,0.0,0.0,0.0
0.0,0.0,1.7893838948897127e+24,0.0
0.0,0.0,0.0,0.0
0.0,0.0,0.0,0.0
1.7893850478112173e+24,0.0,1.401298464324817e-45,0.0
0.0,0.0,0.0,0.0
0.0,0.0,1.7893931182617495e+24,0.0
0.0,0.0,0.0,0.0
0.0,0.0,0.0,0.0
1.7893942711832541e+24,0.0,1.401298464324817e-45,0.0
0.0,0.0,0.0,0.0
0.0,0.0,1.7894024857489745e+24,0.0
0.0,0.0,0.0,0.0
0.0,0.0,0.0,0.0
1.789403638670479e+24,0.0,1.401298464324817e-45,0.0
0.0,0.0,0.0,0.0
0.0,0.0,1.7894117091210113e+24,0.0
0.0,0.0,0.0,0.0
0.0,0.0,0.0,0.0
1.789412862042516e+24,0.0,1.401298464324817e-45,0.0
0.0,0.0,0.0,0.0
0.0,0.0,1.7894210766082362e+24,0.0
0.0,0.0,0.0,0.0
0.0,0.0,0.0,0.0
1.7894222295297409e+24,0.0,1.401298464324817e-45,0.0
0.0,0.0,0.0,0.0
0.0,0.0,1.789430299980273e+24,0.0
0.0,0.0,0.0,0.0
0.0,0.0,0.0,0.0
1.7894314529017777e+24,0.0,1.401298464324817e-45,0.0
0.0,0.0,0.0,0.0
0.0,0.0,1.789439667467498e+24,0.0
0.0,0.0,0.0,0.0
0.0,0.0,0.0,0.0
1.7894408203890026e+24,0.0,1.401298464324817e-45,0.0
0.0,0.0,0.0,0.0
0.0,0.0,1.789449034954723e+24,0.0
0.0,0.0,0.0,0.0
0.0,0.0,0.0,0.0
1.7894501878762276e+24,0.0,1.401298464324817e-45,0.0
0.0,0.0,0.0,0.0
0.0,0.0,1.7894582583267598e+24,0.0
0.0,0.0,0.0,0.0
0.0,0.0,0.0,0.0
1.7894594112482644e+24,0.0,1.401298464324817e-45,0.0
0.0,0.0,0.0,0.0
0.0,0.0,1.7894676258139847e+24,0.0
0.0,0.0,0.0,0.0
0.0,0.0,0.0,0.0
1.7894687787354894e+24,0.0,1.401298464324817e-45,0.0
0.0,0.0,0.0,0.0
0.0,0.0,1.7894768491860216e+24,0.0
0.0,0.0,0.0,0.0
0.0,0.0,0.0,0.0
1.7894780021075262e+24,0.0,1.401298464324817e-45,0.0
0.0,0.0,0.0,0.0
0.0,0.0,1.7894862166732465e+24,0.0
0.0,0.0,0.0,0.0
0.0,0.0,0.0,0.0
1.7894873695947511e+24,0.0,1.401298464324817e-45,0.0
0.0,0.0,0.0,0.0
0.0,0.0,1.7894954400452834e+24,0.0
0.0,0.0,0.0,0.0
0.0,0.0,0.0,0.0
1.789496592966788e+24,0.0,1.401298464324817e-45,0.0
0.0,0.0,0.0,0.0
0.0,0.0,1.7895046634173202e+24,0.0
0.0,0.0,0.0,0.0
0.0,0.0,0.0,0.0
1.789505960454013e+24,0.0,1.401298464324817e-45,0.0
0.0,0.0,0.0,0.0
0.0,0.0,1.7895140309045452e+24,0.0
0.0,0.0,0.0,0.0
0.0,0.0,0.0,0.0
1.7895151838260498e+24,0.0,1.401298464324817e-45,0.0
0.0,0.0,0.0,0.0
0.0,0.0,1.789523254276582e+24,0.0
0.0,0.0,0.0,0.0
0.0,0.0,0.0,0.0
1.7895244071980866e+24,0.0,1.401298464324817e-45,0.0
0.0,0.0,0.0,0.0
0.0,0.0,1.789532621763807e+24,0.0
0.0,0.0,0.0,0.0
0.0,0.0,0.0,0.0
1.7895337746853116e+24,0.0,1.401298464324817e-45,0.0
0.0,0.0,0.0,0.0
0.0,0.0,1.7895418451358438e+24,0.0
0.0,0.0,0.0,0.0
0.0,0.0,0.0,0.0
1.7895429980573484e+24,0.0,1.401298464324817e-45,0.0
0.0,0.0,0.0,0.0
0.0,0.0,1.7895512126230687e+24,0.0
0.0,0.0,0.0,0.0
0.0,0.0,0.0,0.0
1.7895523655445734e+24,0.0,1.401298464324817e-45,0.0
0.0,0.0,0.0,0.0
0.0,0.0,1.7895604359951056e+24,0.0
0.0,0.0,0.0,0.0
0.0,0.0,0.0,0.0
1.7895615889166102e+24,0.0,1.401298464324817e-45,0.0
0.0,0.0,0.0,0.0
0.0,0.0,1.7895698034823305e+24,0.0
0.0,0.0,0.0,0.0
0.0,0.0,0.0,0.0
1.7895709564038351e+24,0.0,1.401298464324817e-45,0.0
0.0,0.0,0.0,0.0
0.0,0.0,1.7895790268543674e+24,0.0
0.0,0.0,0.0,0.0
0.0,0.0,0.0,0.0
1.78958032389106e+24,0.0,1.401298464324817e-45,0.0
0.0,0.0,0.0,0.0
0.0,0.0,1.7895883943415923e+24,0.0
0.0,0.0,0.0,0.0
0.0,0.0,0.0,0.0
1.789589547263097e+24,0.0,1.401298464324817e-45,0.0
0.0,0.0,0.0,0.0
0.0,0.0,1.7895977618288172e+24,0.0
0.0,0.0,0.0,0.0
0.0,0.0,0.0,0.0
1.7895989147503219e+24,0.0,1.401298464324817e-45,0.0
0.0,0.0,0.0,0.0
0.0,0.0,1.789606985200854e+24,0.0
0.0,0.0,0.0,0.0
0.0,0.0,0.0,0.0
1.7896081381223587e+24,0.0,1.401298464324817e-45,0.0
0.0,0.0,0.0,0.0
0.0,0.0,1.789616352688079e+24,0.0
0.0,0.0,0.0,0.0
0.0,0.0,0.0,0.0
1.7896175056095836e+24,0.0,1.401298464324817e-45,0.0
0.0,0.0,0.0,0.0
0.0,0.0,1.789625576060116e+24,0.0
0.0,0.0,0.0,0.0
0.0,0.0,0.0,0.0
1.7896267289816205e+24,0.0,1.401298464324817e-45,0.0
0.0,0.0,0.0,0.0
0.0,0.0,1.7896349435473408e+24,0.0
0.0,0.0,0.0,0.0
0.0,0.0,0.0,0.0
1.7896360964688454e+24,0.0,1.401298464324817e-45,0.0
0.0,0.0,0.0,0.0
0.0,0.0,1.7896441669193777e+24,0.0
0.0,0.0,0.0,0.0
0.0,0.0,0.0,0.0
1.7896453198408823e+24,0.0,1.401298464324817e-45,0.0
0.0,0.0,0.0,0.0
0.0,0.0,1.7896535344066026e+24,0.0
0.0,0.0,0.0,0.0
0.0,0.0,0.0,0.0
1.7896546873281072e+24,0.0,1.401298464324817e-45,0.0
0.0,0.0,0.0,0.0
0.0,0.0,1.7896627577786395e+24,0.0
0.0,0.0,0.0,0.0
0.0,0.0,0.0,0.0
1.789663910700144e+24,0.0,1.401298464324817e-45,0.0
0.0,0.0,0.0,0.0
0.0,0.0,1.7896721252658644e+24,0.0
0.0,0.0,0.0,0.0
0.0,0.0,0.0,0.0
1.789673278187369e+24,0.0,1.401298464324817e-45,0.0
0.0,0.0,0.0,0.0
0.0,0.0,1.7896814927530893e+24,0.0
0.0,0.0,0.0,0.0
0.0,0.0,0.0,0.0
1.789682645674594e+24,0.0,1.401298464324817e-45,0.0
0.0,0.0,0.0,0.0
0.0,0.0,1.7896908602403143e+24,0.0
0.0,0.0,0.0,0.0
0.0,0.0,0.0,0.0
1.7896920131618189e+24,0.0,1.401298464324817e-45,0.0
0.0,0.0,0.0,0.0
0.0,0.0,1.7897002277275392e+24,0.0
0.0,0.0,0.0,0.0
0.0,0.0,0.0,0.0
1.7897013806490438e+24,0.0,1.401298464324817e-45,0.0
0.0,0.0,0.0,0.0
0.0,0.0,1.789709595214764e+24,0.0
0.0,0.0,0.0,0.0
0.0,0.0,0.0,0.0
1.7897107481362687e+24,0.0,1.401298464324817e-45,0.0
0.0,0.0,0.0,0.0
0.0,0.0,1.789718962701989e+24,0.0
0.0,0.0,0.0,0.0
0.0,0.0,0.0,0.0
1.7897201156234936e+24,0.0,1.401298464324817e-45,0.0
0.0,0.0,0.0,0.0
0.0,0.0,1.789728330189214e+24,0.0
0.0,0.0,0.0,0.0
0.0,0.0,0.0,0.0
1.7897294831107186e+24,0.0,1.401298464324817e-45,0.0
0.0,0.0,0.0,0.0
0.0,0.0,1.789737697676439e+24,0.0
0.0,0.0,0.0,0.0
0.0,0.0,0.0,0.0
1.7897388505979435e+24,0.0,1.401298464324817e-45,0.0
0.0,0.0,0.0,0.0
0.0,0.0,1.7897470651636638e+24,0.0
0.0,0.0,0.0,0.0
0.0,0.0,0.0,0.0
1.7897482180851684e+24,0.0,1.401298464324817e-45,0.0
0.0,0.0,0.0,0.0
0.0,0.0,1.7897564326508888e+24,0.0
0.0,0.0,0.0,0.0
0.0,0.0,0.0,0.0
1.7897575855723934e+24,0.0,1.401298464324817e-45,0.0
0.0,0.0,0.0,0.0
0.0,0.0,1.7897658001381137e+24,0.0
0.0,0.0,0.0,0.0
0.0,0.0,0.0,0.0
1.7897669530596183e+24,0.0,1.401298464324817e-45,0.0
0.0,0.0,0.0,0.0
0.0,0.0,1.7897751676253386e+24,0.0
0.0,0.0,0.0,0.0
0.0,0.0,0.0,0.0
1.7897763205468432e+24,0.0,1.401298464324817e-45,0.0
0.0,0.0,0.0,0.0
0.0,0.0,1.7897845351125636e+24,0.0
0.0,0.0,0.0,0.0
0.0,0.0,0.0,0.0
1.7897856880340682e+24,0.0,1.401298464324817e-45,0.0
0.0,0.0,0.0,0.0
0.0,0.0,1.7897939025997885e+24,0.0
0.0,0.0,0.0,0.0
0.0,0.0,0.0,0.0
1.789795055521293e+24,0.0,1.401298464324817e-45,0.0
0.0,0.0,0.0,0.0
0.0,0.0,1.7898032700870134e+24,0.0
0.0,0.0,0.0,0.0
0.0,0.0,0.0,0.0
1.789804423008518e+24,0.0,1.401298464324817e-45,0.0
0.0,0.0,0.0,0.0
0.0,0.0,1.7898126375742383e+24,0.0
0.0,0.0,0.0,0.0
0.0,0.0,0.0,0.0
1.789813790495743e+24,0.0,1.401298464324817e-45,0.0
0.0,0.0,0.0,0.0
0.0,0.0,1.7898220050614633e+24,0.0
0.0,0.0,0.0,0.0
0.0,0.0,0.0,0.0
1.789823157982968e+24,0.0,1.401298464324817e-45,0.0
0.0,0.0,0.0,0.0
0.0,0.0,1.7898312284335e+24,0.0
0.0,0.0,0.0,0.0
0.0,0.0,0.0,0.0
1.7898325254701928e+24,0.0,1.401298464324817e-45,0.0
0.0,0.0,0.0,0.0
0.0,0.0,1.789840595920725e+24,0.0
0.0,0.0,0.0,0.0
0.0,0.0,0.0,0.0
1.7898418929574177e+24,0.0,1.401298464324817e-45,0.0
0.0,0.0,0.0,0.0
0.0,0.0,1.78984996340795e+24,0.0
0.0,0.0,0.0,0.0
0.0,0.0,0.0,0.0
1.7898511163294546e+24,0.0,1.401298464324817e-45,0.0
0.0,0.0,0.0,0.0
0.0,0.0,1.789859330895175e+24,0.0
0.0,0.0,0.0,0.0
0.0,0.0,0.0,0.0
1.7898604838166795e+24,0.0,1.401298464324817e-45,0.0
0.0,0.0,0.0,0.0
0.0,0.0,1.7898685542672118e+24,0.0
0.0,0.0,0.0,0.0
0.0,0.0,0.0,0.0
1.7898697071887164e+24,0.0,1.401298464324817e-45,0.0
0.0,0.0,0.0,0.0
0.0,0.0,1.7898779217544367e+24,0.0
0.0,0.0,0.0,0.0
0.0,0.0,0.0,0.0
1.7898790746759413e+24,0.0,1.401298464324817e-45,0.0
0.0,0.0,0.0,0.0
0.0,0.0,1.7898871451264736e+24,0.0
0.0,0.0,0.0,0.0
0.0,0.0,0.0,0.0
1.7898882980479782e+24,0.0,1.401298464324817e-45,0.0
0.0,0.0,0.0,0.0
0.0,0.0,1.7898965126136985e+24,0.0
0.0,0.0,0.0,0.0
0.0,0.0,0.0,0.0
1.789897665535203e+24,0.0,1.401298464324817e-45,0.0
0.0,0.0,0.0,0.0
0.0,0.0,1.7899057359857354e+24,0.0
0.0,0.0,0.0,0.0
0.0,0.0,0.0,0.0
1.78990688890724e+24,0.0,1.401298464324817e-45,0.0
0.0,0.0,0.0,0.0
0.0,0.0,1.7899151034729603e+24,0.0
0.0,0.0,0.0,0.0
0.0,0.0,0.0,0.0
1.789916256394465e+24,0.0,1.401298464324817e-45,0.0
0.0,0.0,0.0,0.0
0.0,0.0,1.7899243268449971e+24,0.0
0.0,0.0,0.0,0.0
0.0,0.0,0.0,0.0
1.7899254797665017e+24,0.0,1.401298464324817e-45,0.0
0.0,0.0,0.0,0.0
0.0,0.0,1.789933694332222e+24,0.0
0.0,0.0,0.0,0.0
0.0,0.0,0.0,0.0
1.7899348472537267e+24,0.0,1.401298464324817e-45,0.0
0.0,0.0,0.0,0.0
0.0,0.0,1.789942917704259e+24,0.0
0.0,0.0,0.0,0.0
0.0,0.0,0.0,0.0
1.7899440706257635e+24,0.0,1.401298464324817e-45,0.0
0.0,0.0,0.0,0.0
0.0,0.0,1.7899522851914839e+24,0.0
0.0,0.0,0.0,0.0
0.0,0.0,0.0,0.0
1.7899534381129885e+24,0.0,1.401298464324817e-45,0.0
0.0,0.0,0.0,0.0
0.0,0.0,1.7899615085635207e+24,0.0
0.0,0.0,0.0,0.0
0.0,0.0,0.0,0.0
1.7899626614850253e+24,0.0,1.401298464324817e-45,0.0
0.0,0.0,0.0,0.0
0.0,0.0,1.7899708760507456e+24,0.0
0.0,0.0,0.0,0.0
0.0,0.0,0.0,0.0
1.7899720289722502e+24,0.0,1.401298464324817e-45,0.0
0.0,0.0,0.0,0.0
0.0,0.0,1.7899800994227825e+24,0.0
0.0,0.0,0.0,0.0
0.0,0.0,0.0,0.0
1.789981252344287e+24,0.0,1.401298464324817e-45,0.0
0.0,0.0,0.0,0.0
0.0,0.0,1.7899894669100074e+24,0.0
0.0,0.0,0.0,0.0
0.0,0.0,0.0,0.0
1.789990619831512e+24,0.0,1.401298464324817e-45,0.0
0.0,0.0,0.0,0.0
0.0,0.0,1.7899986902820443e+24,0.0
0.0,0.0,0.0,0.0
0.0,0.0,0.0,0.0
1.789999843203549e+24,0.0,1.401298464324817e-45,0.0
0.0,0.0,0.0,0.0
0.0,0.0,1.7900080577692692e+24,0.0
0.0,0.0,0.0,0.0
0.0,0.0,0.0,0.0
1.7900092106907738e+24,0.0,1.401298464324817e-45,0.0
0.0,0.0,0.0,0.0
0.0,0.0,1.790017281141306e+24,0.0
0.0,0.0,0.0,0.0
0.0,0.0,0.0,0.0
1.7900184340628107e+24,0.0,1.401298464324817e-45,0.0
0.0,0.0,0.0,0.0
0.0,0.0,1.790026648628531e+24,0.0
0.0,0.0,0.0,0.0
0.0,0.0,0.0,0.0
1.7900278015500356e+24,0.0,1.401298464324817e-45,0.0
0.0,0.0,0.0,0.0
0.0,0.0,1.7900358720005678e+24,0.0
0.0,0.0,0.0,0.0
0.0,0.0,0.0,0.0
1.7900370249220725e+24,0.0,1.401298464324817e-45,0.0
0.0,0.0,0.0,0.0
0.0,0.0,1.7900452394877928e+24,0.0
0.0,0.0,0.0,0.0
0.0,0.0,0.0,0.0
1.7900463924092974e+24,0.0,1.401298464324817e-45,0.0
0.0,0.0,0.0,0.0
0.0,0.0,1.7900544628598296e+24,0.0
0.0,0.0,0.0,0.0
0.0,0.0,0.0,0.0
1.7900557598965223e+24,0.0,1.401298464324817e-45,0.0
0.0,0.0,0.0,0.0
0.0,0.0,1.7900638303470546e+24,0.0
0.0,0.0,0.0,0.0
0.0,0.0,0.0,0.0
1.7900649832685592e+24,0.0,1.401298464324817e-45,0.0
0.0,0.0,0.0,0.0
0.0,0.0,1.7900731978342795e+24,0.0
0.0,0.0,0.0,0.0
0.0,0.0,0.0,0.0
1.790074350755784e+24,0.0,1.401298464324817e-45,0.0
0.0,0.0,0.0,0.0
0.0,0.0,1.7900824212063164e+24,0.0
0.0,0.0,0.0,0.0
0.0,0.0,0.0,0.0
1.790083574127821e+24,0.0,1.401298464324817e-45,0.0
0.0,0.0,0.0,0.0
0.0,0.0,1.7900916445783532e+24,0.0
0.0,0.0,0.0,0.0
0.0,0.0,0.0,0.0
1.790092941615046e+24,0.0,1.401298464324817e-45,0.0
0.0,0.0,0.0,0.0
0.0,0.0,1.7901010120655781e+24,0.0
0.0,0.0,0.0,0.0
0.0,0.0,0.0,0.0
1.7901021649870827e+24,0.0,1.401298464324817e-45,0.0
0.0,0.0,0.0,0.0
0.0,0.0,1.790110235437615e+24,0.0
0.0,0.0,0.0,0.0
0.0,0.0,0.0,0.0
1.7901115324743077e+24,0.0,1.401298464324817e-45,0.0
0.0,0.0,0.0,0.0
0.0,0.0,1.79011960292484e+24,0.0
0.0,0.0,0.0,0.0
0.0,0.0,0.0,0.0
1.7901207558463445e+24,0.0,1.401298464324817e-45,0.0
0.0,0.0,0.0,0.0
0.0,0.0,1.7901288262968768e+24,0.0
0.0,0.0,0.0,0.0
0.0,0.0,0.0,0.0
1.7901299792183814e+24,0.0,1.401298464324817e-45,0.0
0.0,0.0,0.0,0.0
0.0,0.0,1.7901381937841017e+24,0.0
0.0,0.0,0.0,0.0
0.0,0.0,0.0,0.0
1.7901393467056063e+24,0.0,1.401298464324817e-45,0.0
0.0,0.0,0.0,0.0
0.0,0.0,1.7901474171561386e+24,0.0
0.0,0.0,0.0,0.0
0.0,0.0,0.0,0.0
1.7901485700776432e+24,0.0,1.401298464324817e-45,0.0
0.0,0.0,0.0,0.0
0.0,0.0,1.7901567846433635e+24,0.0
0.0,0.0,0.0,0.0
0.0,0.0,0.0,0.0
1.790157937564868e+24,0.0,1.401298464324817e-45,0.0
0.0,0.0,0.0,0.0
0.0,0.0,1.7901660080154003e+24,0.0
0.0,0.0,0.0,0.0
0.0,0.0,0.0,0.0
1.790167160936905e+24,0.0,1.401298464324817e-45,0.0
0.0,0.0,0.0,0.0
0.0,0.0,1.7901753755026253e+24,0.0
0.0,0.0,0.0,0.0
0.0,0.0,0.0,0.0
1.79017652842413e+24,0.0,1.401298464324817e-45,0.0
0.0,0.0,0.0,0.0
0.0,0.0,1.790184598874662e+24,0.0
0.0,0.0,0.0,0.0
0.0,0.0,0.0,0.0
1.7901857517961667e+24,0.0,1.401298464324817e-45,0.0
0.0,0.0,0.0,0.0
0.0,0.0,1.790193966361887e+24,0.0
0.0,0.0,0.0,0.0
0.0,0.0,0.0,0.0
1.7901951192833917e+24,0.0,1.401298464324817e-45,0.0
0.0,0.0,0.0,0.0
0.0,0.0,1.790203189733924e+24,0.0
0.0,0.0,0.0,0.0
0.0,0.0,0.0,0.0
1.7902043426554285e+24,0.0,1.401298464324817e-45,0.0
0.0,0.0,0.0,0.0
0.0,0.0,1.7902125572211488e+24,0.0
0.0,0.0,0.0,0.0
0.0,0.0,0.0,0.0
1.7902137101426535e+24,0.0,1.401298464324817e-45,0.0
0.0,0.0,0.0,0.0
0.0,0.0,1.7902217805931857e+24,0.0
0.0,0.0,0.0,0.0
0.0,0.0,0.0,0.0
1.7902229335146903e+24,0.0,1.401298464324817e-45,0.0
0.0,0.0,0.0,0.0
0.0,0.0,1.7902311480804106e+24,0.0
0.0,0.0,0.0,0.0
0.0,0.0,0.0,0.0
1.7902323010019152e+24,0.0,1.401298464324817e-45,0.0
0.0,0.0,0.0,0.0
0.0,0.0,1.7902403714524475e+24,0.0
0.0,0.0,0.0,0.0
0.0,0.0,0.0,0.0
1.790241524373952e+24,0.0,1.401298464324817e-45,0.0
0.0,0.0,0.0,0.0
0.0,0.0,1.7902497389396724e+24,0.0
0.0,0.0,0.0,0.0
0.0,0.0,0.0,0.0
1.790250891861177e+24,0.0,1.401298464324817e-45,0.0
0.0,0.0,0.0,0.0
0.0,0.0,1.7902589623117093e+24,0.0
0.0,0.0,0.0,0.0
0.0,0.0,0.0,0.0
1.790260115233214e+24,0.0,1.401298464324817e-45,0.0
0.0,0.0,0.0,0.0
0.0,0.0,1.7902683297989342e+24,0.0
0.0,0.0,0.0,0.0
0.0,0.0,0.0,0.0
1.7902694827204388e+24,0.0,1.401298464324817e-45,0.0
0.0,0.0,0.0,0.0
0.0,0.0,1.790277553170971e+24,0.0
0.0,0.0,0.0,0.0
0.0,0.0,0.0,0.0
1.7902787060924757e+24,0.0,1.401298464324817e-45,0.0
0.0,0.0,0.0,0.0
0.0,0.0,1.790286920658196e+24,0.0
0.0,0.0,0.0,0.0
0.0,0.0,0.0,0.0
1.7902880735797006e+24,0.0,1.401298464324817e-45,0.0
0.0,0.0,0.0,0.0
0.0,0.0,1.7902961440302328e+24,0.0
0.0,0.0,0.0,0.0
0.0,0.0,0.0,0.0
1.7902972969517375e+24,0.0,1.401298464324817e-45,0.0
0.0,0.0,0.0,0.0
0.0,0.0,1.7903055115174578e+24,0.0
0.0,0.0,0.0,0.0
0.0,0.0,0.0,0.0
1.7903066644389624e+24,0.0,1.401298464324817e-45,0.0
0.0,0.0,0.0,0.0
0.0,0.0,1.7903147348894946e+24,0.0
0.0,0.0,0.0,0.0
0.0,0.0,0.0,0.0
1.7903158878109992e+24,0.0,1.401298464324817e-45,0.0
0.0,0.0,0.0,0.0
0.0,0.0,1.7903241023767196e+24,0.0
0.0,0.0,0.0,0.0
0.0,0.0,0.0,0.0
1.7903252552982242e+24,0.0,1.401298464324817e-45,0.0
0.0,0.0,0.0,0.0
0.0,0.0,1.7903333257487564e+24,0.0
0.0,0.0,0.0,0.0
0.0,0.0,0.0,0.0
1.790334478670261e+24,0.0,1.401298464324817e-45,0.0
0.0,0.0,0.0,0.0
0.0,0.0,1.7903426932359813e+24,0.0
0.0,0.0,0.0,0.0
0.0,0.0,0.0,0.0
1.790343846157486e+24,0.0,1.401298464324817e-45,0.0
0.0,0.0,0.0,0.0
0.0,0.0,1.7903519166080182e+24,0.0
0.0,0.0,0.0,0.0
0.0,0.0,0.0,0.0
1.790353213644711e+24,0.0,1.401298464324817e-45,0.0
0.0,0.0,0.0,0.0
0.0,0.0,1.790361284095243e+24,0.0
0.0,0.0,0.0,0.0
0.0,0.0,0.0,0.0
1.7903625811319358e+24,0.0,1.401298464324817e-45,0.0
0.0,0.0,0.0,0.0
0.0,0.0,1.790370651582468e+24,0.0
0.0,0.0,0.0,0.0
0.0,0.0,0.0,0.0
1.7903718045039727e+24,0.0,1.401298464324817e-45,0.0
0.0,0.0,0.0,0.0
0.0,0.0,1.790380019069693e+24,0.0
0.0,0.0,0.0,0.0
0.0,0.0,0.0,0.0
1.7903811719911976e+24,0.0,1.401298464324817e-45,0.0
0.0,0.0,0.0,0.0
0.0,0.0,1.790389386556918e+24,0.0
0.0,0.0,0.0,0.0
0.0,0.0,0.0,0.0
1.7903905394784225e+24,0.0,1.401298464324817e-45,0.0
0.0,0.0,0.0,0.0
0.0,0.0,1.7903987540441429e+24,0.0
0.0,0.0,0.0,0.0
0.0,0.0,0.0,0.0
1.7903999069656475e+24,0.0,1.401298464324817e-45,0.0
0.0,0.0,0.0,0.0
0.0,0.0,1.7904081215313678e+24,0.0
0.0,0.0,0.0,0.0
0.0,0.0,0.0,0.0
1.7904092744528724e+24,0.0,1.401298464324817e-45,0.0
0.0,0.0,0.0,0.0
0.0,0.0,1.7904174890185927e+24,0.0
0.0,0.0,0.0,0.0
0.0,0.0,0.0,0.0
1.7904186419400973e+24,0.0,1.401298464324817e-45,0.0
0.0,0.0,0.0,0.0
0.0,0.0,1.7904268565058176e+24,0.0
0.0,0.0,0.0,0.0
0.0,0.0,0.0,0.0
1.7904280094273223e+24,0.0,1.401298464324817e-45,0.0
0.0,0.0,0.0,0.0
0.0,0.0,1.7904362239930426e+24,0.0
0.0,0.0,0.0,0.0
0.0,0.0,0.0,0.0
1.7904373769145472e+24,0.0,1.401298464324817e-45,0.0
0.0,0.0,0.0,0.0
0.0,0.0,1.7904455914802675e+24,0.0
0.0,0.0,0.0,0.0
0.0,0.0,0.0,0.0
1.790446744401772e+24,0.0,1.401298464324817e-45,0.0
0.0,0.0,0.0,0.0
0.0,0.0,1.7904549589674924e+24,0.0
0.0,0.0,0.0,0.0
0.0,0.0,0.0,0.0
1.790456111888997e+24,0.0,1.401298464324817e-45,0.0
0.0,0.0,0.0,0.0
0.0,0.0,1.7904643264547174e+24,0.0
0.0,0.0,0.0,0.0
0.0,0.0,0.0,0.0
1.790465479376222e+24,0.0,1.401298464324817e-45,0.0
0.0,0.0,0.0,0.0
0.0,0.0,1.7904736939419423e+24,0.0
0.0,0.0,0.0,0.0
0.0,0.0,0.0,0.0
1.790474846863447e+24,0.0,1.401298464324817e-45,0.0
0.0,0.0,0.0,0.0
0.0,0.0,1.7904829173139792e+24,0.0
0.0,0.0,0.0,0.0
0.0,0.0,0.0,0.0
1.7904840702354838e+24,0.0,1.401298464324817e-45,0.0
0.0,0.0,0.0,0.0
0.0,0.0,1.790492284801204e+24,0.0
0.0,0.0,0.0,0.0
0.0,0.0,0.0,0.0
1.7904934377227087e+24,0.0,1.401298464324817e-45,0.0
0.0,0.0,0.0,0.0
0.0,0.0,1.790501508173241e+24,0.0
0.0,0.0,0.0,0.0
0.0,0.0,0.0,0.0
1.7905026610947455e+24,0.0,1.401298464324817e-45,0.0
0.0,0.0,0.0,0.0
0.0,0.0,1.790510875660466e+24,0.0
0.0,0.0,0.0,0.0
0.0,0.0,0.0,0.0
1.7905120285819705e+24,0.0,1.401298464324817e-45,0.0
0.0,0.0,0.0,0.0
0.0,0.0,1.7905200990325027e+24,0.0
0.0,0.0,0.0,0.0
0.0,0.0,0.0,0.0
1.7905212519540073e+24,0.0,1.401298464324817e-45,0.0
0.0,0.0,0.0,0.0
0.0,0.0,1.7905294665197277e+24,0.0
0.0,0.0,0.0,0.0
0.0,0.0,0.0,0.0
1.7905306194412323e+24,0.0,1.401298464324817e-45,0.0
0.0,0.0,0.0,0.0
0.0,0.0,1.7905386898917645e+24,0.0
0.0,0.0,0.0,0.0
0.0,0.0,0.0,0.0
1.790539842813269e+24,0.0,1.401298464324817e-45,0.0
0.0,0.0,0.0,0.0
0.0,0.0,1.7905480573789894e+24,0.0
0.0,0.0,0.0,0.0
0.0,0.0,0.0,0.0
1.790549210300494e+24,0.0,1.401298464324817e-45,0.0
0.0,0.0,0.0,0.0
0.0,0.0,1.7905574248662144e+24,0.0
0.0,0.0,0.0,0.0
0.0,0.0,0.0,0.0
1.790558577787719e+24,0.0,1.401298464324817e-45,0.0
0.0,0.0,0.0,0.0
0.0,0.0,1.7905666482382512e+24,0.0
0.0,0.0,0.0,0.0
0.0,0.0,0.0,0.0
1.7905678011597558e+24,0.0,1.401298464324817e-45,0.0
0.0,0.0,0.0,0.0
0.0,0.0,1.790575871610288e+24,0.0
0.0,0.0,0.0,0.0
0.0,0.0,0.0,0.0
1.7905771686469808e+24,0.0,1.401298464324817e-45,0.0
0.0,0.0,0.0,0.0
0.0,0.0,1.790585239097513e+24,0.0
0.0,0.0,0.0,0.0
0.0,0.0,0.0,0.0
1.7905863920190176e+24,0.0,1.401298464324817e-45,0.0
0.0,0.0,0.0,0.0
0.0,0.0,1.79059446246955e+24,0.0
0.0,0.0,0.0,0.0
0.0,0.0,0.0,0.0
1.7905956153910545e+24,0.0,1.401298464324817e-45,0.0
0.0,0.0,0.0,0.0
0.0,0.0,1.7906038299567748e+24,0.0
0.0,0.0,0.0,0.0
0.0,0.0,0.0,0.0
1.7906049828782794e+24,0.0,1.401298464324817e-45,0.0
0.0,0.0,0.0,0.0
0.0,0.0,1.7906130533288117e+24,0.0
0.0,0.0,0.0,0.0
0.0,0.0,0.0,0.0
1.7906142062503163e+24,0.0,1.401298464324817e-45,0.0
0.0,0.0,0.0,0.0
0.0,0.0,1.7906224208160366e+24,0.0
0.0,0.0,0.0,0.0
0.0,0.0,0.0,0.0
1.7906235737375412e+24,0.0,1.401298464324817e-45,0.0
0.0,0.0,0.0,0.0
0.0,0.0,1.7906316441880734e+24,0.0
0.0,0.0,0.0,0.0
0.0,0.0,0.0,0.0
1.790632797109578e+24,0.0,1.401298464324817e-45,0.0
0.0,0.0,0.0,0.0
0.0,0.0,1.7906410116752984e+24,0.0
0.0,0.0,0.0,0.0
0.0,0.0,0.0,0.0
1.790642164596803e+24,0.0,1.401298464324817e-45,0.0
0.0,0.0,0.0,0.0
0.0,0.0,1.7906502350473352e+24,0.0
0.0,0.0,0.0,0.0
0.0,0.0,0.0,0.0
1.7906513879688398e+24,0.0,1.401298464324817e-45,0.0
0.0,0.0,0.0,0.0
0.0,0.0,1.7906596025345602e+24,0.0
0.0,0.0,0.0,0.0
0.0,0.0,0.0,0.0
1.7906607554560648e+24,0.0,1.401298464324817e-45,0.0
0.0,0.0,0.0,0.0
0.0,0.0,1.790668825906597e+24,0.0
0.0,0.0,0.0,0.0
0.0,0.0,0.0,0.0
1.7906699788281016e+24,0.0,1.401298464324817e-45,0.0
0.0,0.0,0.0,0.0
0.0,0.0,1.790678193393822e+24,0.0
0.0,0.0,0.0,0.0
0.0,0.0,0.0,0.0
1.7906793463153265e+24,0.0,1.401298464324817e-45,0.0
0.0,0.0,0.0,0.0
0.0,0.0,1.7906874167658588e+24,0.0
0.0,0.0,0.0,0.0
0.0,0.0,0.0,0.0
1.7906885696873634e+24,0.0,1.401298464324817e-45,0.0
0.0,0.0,0.0,0.0
0.0,0.0,1.7906967842530837e+24,0.0
0.0,0.0,0.0,0.0
0.0,0.0,0.0,0.0
1.7906979371745883e+24,0.0,1.401298464324817e-45,0.0
0.0,0.0,0.0,0.0
0.0,0.0,1.7907060076251206e+24,0.0
0.0,0.0,0.0,0.0
0.0,0.0,0.0,0.0
1.7907071605466252e+24,0.0,1.401298464324817e-45,0.0
0.0,0.0,0.0,0.0
0.0,0.0,1.7907153751123455e+24,0.0
0.0,0.0,0.0,0.0
0.0,0.0,0.0,0.0
1.79071652803385e+24,0.0,1.401298464324817e-45,0.0
0.0,0.0,0.0,0.0
0.0,0.0,1.7907245984843824e+24,0.0
0.0,0.0,0.0,0.0
0.0,0.0,0.0,0.0
1.790725751405887e+24,0.0,1.401298464324817e-45,0.0
0.0,0.0,0.0,0.0
0.0,0.0,1.7907339659716073e+24,0.0
0.0,0.0,0.0,0.0
0.0,0.0,0.0,0.0
1.790735118893112e+24,0.0,1.401298464324817e-45,0.0
0.0,0.0,0.0,0.0
0.0,0.0,1.7907431893436441e+24,0.0
0.0,0.0,0.0,0.0
0.0,0.0,0.0,0.0
1.7907443422651488e+24,0.0,1.401298464324817e-45,0.0
0.0,0.0,0.0,0.0
0.0,0.0,1.790752556830869e+24,0.0
0.0,0.0,0.0,0.0
0.0,0.0,0.0,0.0
1.7907537097523737e+24,0.0,1.401298464324817e-45,0.0
0.0,0.0,0.0,0.0
0.0,0.0,1.790761780202906e+24,0.0
0.0,0.0,0.0,0.0
0.0,0.0,0.0,0.0
1.7907629331244105e+24,0.0,1.401298464324817e-45,0.0
0.0,0.0,0.0,0.0
0.0,0.0,1.7907711476901309e+24,0.0
0.0,0.0,0.0,0.0
0.0,0.0,0.0,0.0
1.7907723006116355e+24,0.0,1.401298464324817e-45,0.0
0.0,0.0,0.0,0.0
0.0,0.0,1.7907803710621677e+24,0.0
0.0,0.0,0.0,0.0
0.0,0.0,0.0,0.0
1.7907815239836723e+24,0.0,1.401298464324817e-45,0.0
0.0,0.0,0.0,0.0
0.0,0.0,1.7907897385493927e+24,0.0
0.0,0.0,0.0,0.0
0.0,0.0,0.0,0.0
1.7907908914708973e+24,0.0,1.401298464324817e-45,0.0
0.0,0.0,0.0,0.0
0.0,0.0,1.7907989619214295e+24,0.0
0.0,0.0,0.0,0.0
0.0,0.0,0.0,0.0
1.790800114842934e+24,0.0,1.401298464324817e-45,0.0
0.0,0.0,0.0,0.0
0.0,0.0,1.7908083294086544e+24,0.0
0.0,0.0,0.0,0.0
0.0,0.0,0.0,0.0
1.790809482330159e+24,0.0,1.401298464324817e-45,0.0
0.0,0.0,0.0,0.0
0.0,0.0,1.7908175527806913e+24,0.0
0.0,0.0,0.0,0.0
0.0,0.0,0.0,0.0
1.790818705702196e+24,0.0,1.401298464324817e-45,0.0
0.0,0.0,0.0,0.0
0.0,0.0,1.7908267761527281e+24,0.0
0.0,0.0,0.0,0.0
0.0,0.0,0.0,0.0
1.7908280731894208e+24,0.0,1.401298464324817e-45,0.0
0.0,0.0,0.0,0.0
0.0,0.0,1.790836143639953e+24,0.0
0.0,0.0,0.0,0.0
0.0,0.0,0.0,0.0
1.7908372965614577e+24,0.0,1.401298464324817e-45,0.0
0.0,0.0,0.0,0.0
0.0,0.0,1.79084536701199e+24,0.0
0.0,0.0,0.0,0.0
0.0,0.0,0.0,0.0
1.7908465199334945e+24,0.0,1.401298464324817e-45,0.0
0.0,0.0,0.0,0.0
0.0,0.0,1.7908547344992149e+24,0.0
0.0,0.0,0.0,0.0
0.0,0.0,0.0,0.0
1.7908558874207195e+24,0.0,1.401298464324817e-45,0.0
0.0,0.0,0.0,0.0
0.0,0.0,1.7908639578712517e+24,0.0
0.0,0.0,0.0,0.0
0.0,0.0,0.0,0.0
1.7908651107927563e+24,0.0,1.401298464324817e-45,0.0
0.0,0.0,0.0,0.0
0.0,0.0,1.7908733253584766e+24,0.0
0.0,0.0,0.0,0.0
0.0,0.0,0.0,0.0
1.7908744782799813e+24,0.0,1.401298464324817e-45,0.0
0.0,0.0,0.0,0.0
0.0,0.0,1.7908825487305135e+24,0.0
0.0,0.0,0.0,0.0
0.0,0.0,0.0,0.0
1.790883701652018e+24,0.0,1.401298464324817e-45,0.0
0.0,0.0,0.0,0.0
0.0,0.0,1.7908919162177384e+24,0.0
0.0,0.0,0.0,0.0
0.0,0.0,0.0,0.0
1.790893069139243e+24,0.0,1.401298464324817e-45,0.0
0.0,0.0,0.0,0.0
0.0,0.0,1.7909011395897753e+24,0.0
0.0,0.0,0.0,0.0
0.0,0.0,0.0,0.0
1.79090229251128e+24,0.0,1.401298464324817e-45,0.0
0.0,0.0,0.0,0.0
0.0,0.0,1.7909105070770002e+24,0.0
0.0,0.0,0.0,0.0
0.0,0.0,0.0,0.0
1.7909116599985048e+24,0.0,1.401298464324817e-45,0.0
0.0,0.0,0.0,0.0
0.0,0.0,1.790919730449037e+24,0.0
0.0,0.0,0.0,0.0
0.0,0.0,0.0,0.0
1.7909208833705417e+24,0.0,1.401298464324817e-45,0.0
0.0,0.0,0.0,0.0
0.0,0.0,1.790929097936262e+24,0.0
0.0,0.0,0.0,0.0
0.0,0.0,0.0,0.0
1.7909302508577666e+24,0.0,1.401298464324817e-45,0.0
0.0,0.0,0.0,0.0
0.0,0.0,1.7909383213082989e+24,0.0
0.0,0.0,0.0,0.0
0.0,0.0,0.0,0.0
1.7909394742298035e+24,0.0,1.401298464324817e-45,0.0
0.0,0.0,0.0,0.0
0.0,0.0,1.7909476887955238e+24,0.0
0.0,0.0,0.0,0.0
0.0,0.0,0.0,0.0
1.7909488417170284e+24,0.0,1.401298464324817e-45,0.0
0.0,0.0,0.0,0.0
0.0,0.0,1.7909569121675606e+24,0.0
0.0,0.0,0.0,0.0
0.0,0.0,0.0,0.0
1.7909580650890653e+24,0.0,1.401298464324817e-45,0.0
0.0,0.0,0.0,0.0
0.0,0.0,1.7909662796547856e+24,0.0
0.0,0.0,0.0,0.0
0.0,0.0,0.0,0.0
1.7909674325762902e+24,0.0,1.401298464324817e-45,0.0
0.0,0.0,0.0,0.0
0.0,0.0,1.7909755030268224e+24,0.0
0.0,0.0,0.0,0.0
0.0,0.0,0.0,0.0
1.790976655948327e+24,0.0,1.401298464324817e-45,0.0
0.0,0.0,0.0,0.0
0.0,0.0,1.7909848705140474e+24,0.0
0.0,0.0,0.0,0.0
0.0,0.0,0.0,0.0
1.790986023435552e+24,0.0,1.401298464324817e-45,0.0
0.0,0.0,0.0,0.0
0.0,0.0,1.7909940938860842e+24,0.0
0.0,0.0,0.0,0.0
0.0,0.0,0.0,0.0
1.7909952468075888e+24,0.0,1.401298464324817e-45,0.0
0.0,0.0,0.0,0.0
0.0,0.0,1.7910034613733091e+24,0.0
0.0,0.0,0.0,0.0
0.0,0.0,0.0,0.0
1.7910046142948138e+24,0.0,0.0,0.0
0.0,0.0,0.0,0.0
0.0,0.0,1.7910667279408744e+24,0.0
1.401298464324817e-45,0.0,0.0,0.0
0.0,0.0,0.0,0.0
1.791067880862379e+24,0.0,0.0,0.0
0.0,0.0,0.0,0.0
0.0,0.0,1.7911997462594685e+24,0.0
1.401298464324817e-45,0.0,0.0,0.0
0.0,0.0,0.0,0.0
1.7911998903746565e+24,0.0,0.0,0.0
0.0,0.0,0.0,0.0
0.0,0.0,1.7913340616147552e+24,0.0
1.401298464324817e-45,0.0,0.0,0.0
0.0,0.0,0.0,0.0
1.7913344939603194e+24,0.0,1.401298464324817e-45,0.0
0.0,0.0,0.0,0.0
0.0,0.0,1.791466935818161e+24,0.0
0.0,0.0,0.0,0.0
0.0,0.0,0.0,0.0
1.7914676563941015e+24,0.0,1.401298464324817e-45,0.0
0.0,0.0,0.0,0.0
0.0,0.0,1.7916031246708928e+24,0.0
0.0,0.0,0.0,0.0
0.0,0.0,0.0,0.0
1.7916032687860809e+24,0.0,0.0,0.0
0.0,0.0,0.0,0.0
0.0,0.0,1.7917359988742987e+24,0.0
1.401298464324817e-45,0.0,0.0,0.0
0.0,0.0,0.0,0.0
1.791736431219863e+24,0.0,0.0,0.0
0.0,0.0,0.0,0.0
0.0,0.0,1.7918727641877827e+24,0.0
1.401298464324817e-45,0.0,0.0,0.0
0.0,0.0,0.0,0.0
1.7918737729940992e+24,0.0,0.0,0.0
0.0,0.0,0.0,0.0
0.0,0.0,1.7920057825063767e+24,0.0
1.401298464324817e-45,0.0,0.0,0.0
0.0,0.0,0.0,0.0
1.7920059266215648e+24,0.0,1.401298464324817e-45,0.0
0.0,0.0,0.0,0.0
0.0,0.0,1.7920523317121252e+24,0.0
0.0,0.0,0.0,0.0
0.0,0.0,0.0,0.0
1.7920527640576895e+24,0.0,0.0,0.0
0.0,0.0,0.0,0.0
0.0,0.0,1.792183188302898e+24,0.0
1.401298464324817e-45,0.0,0.0,0.0
0.0,0.0,0.0,0.0
1.7921837647636504e+24,0.0,1.401298464324817e-45,0.0
0.0,0.0,0.0,0.0
0.0,0.0,1.792316062506304e+24,0.0
0.0,0.0,0.0,0.0
0.0,0.0,0.0,0.0
1.7923169271974325e+24,0.0,0.0,0.0
0.0,0.0,0.0,0.0
0.0,0.0,1.792449080824898e+24,0.0
1.401298464324817e-45,0.0,0.0,0.0
0.0,0.0,0.0,0.0
1.7924500896312146e+24,0.0,0.0,0.0
0.0,0.0,0.0,0.0
0.0,0.0,1.792581955028304e+24,0.0
1.401298464324817e-45,0.0,0.0,0.0
0.0,0.0,0.0,0.0
1.792582099143492e+24,0.0,1.401298464324817e-45,0.0
0.0,0.0,0.0,0.0
0.0,0.0,1.792714973346898e+24,0.0
0.0,0.0,0.0,0.0
0.0,0.0,0.0,0.0
1.7927154056924622e+24,0.0,0.0,0.0
0.0,0.0,0.0,0.0
0.0,0.0,1.792847991665492e+24,0.0
1.401298464324817e-45,0.0,0.0,0.0
0.0,0.0,0.0,0.0
1.7928487122414324e+24,0.0,1.401298464324817e-45,0.0
0.0,0.0,0.0,0.0
0.0,0.0,1.792981009984086e+24,0.0
0.0,0.0,0.0,0.0
0.0,0.0,0.0,0.0
1.7929820187904026e+24,0.0,1.401298464324817e-45,0.0
0.0,0.0,0.0,0.0
0.0,0.0,1.793113884187492e+24,0.0
0.0,0.0,0.0,0.0
0.0,0.0,0.0,0.0
1.793114172417868e+24,0.0,0.0,0.0
0.0,0.0,0.0,0.0
0.0,0.0,1.793246902506086e+24,0.0
1.401298464324817e-45,0.0,0.0,0.0
0.0,0.0,0.0,0.0
1.7932473348516502e+24,0.0,1.401298464324817e-45,0.0
0.0,0.0,0.0,0.0
0.0,0.0,1.793379776709492e+24,0.0
0.0,0.0,0.0,0.0
0.0,0.0,0.0,0.0
1.7933804972854323e+24,0.0,0.0,0.0
0.0,0.0,0.0,0.0
0.0,0.0,1.793512795028086e+24,0.0
1.401298464324817e-45,0.0,0.0,0.0
0.0,0.0,0.0,0.0
1.7935138038344025e+24,0.0,0.0,0.0
0.0,0.0,0.0,0.0
0.0,0.0,1.7936662777033867e+24,0.0
1.401298464324817e-45,0.0,0.0,0.0
0.0,0.0,0.0,0.0
1.793666565933763e+24,0.0,1.401298464324817e-45,0.0
0.0,0.0,0.0,0.0
0.0,0.0,1.7937991519067927e+24,0.0
0.0,0.0,0.0,0.0
0.0,0.0,0.0,0.0
1.793799728367545e+24,0.0,0.0,0.0
0.0,0.0,0.0,0.0
0.0,0.0,1.7939323143405748e+24,0.0
1.401298464324817e-45,0.0,0.0,0.0
0.0,0.0,0.0,0.0
1.7939330349165151e+24,0.0,1.401298464324817e-45,0.0
0.0,0.0,0.0,0.0
0.0,0.0,1.7940651885439807e+24,0.0
0.0,0.0,0.0,0.0
0.0,0.0,0.0,0.0
1.7940661973502972e+24,0.0,1.401298464324817e-45,0.0
0.0,0.0,0.0,0.0
0.0,0.0,1.794103667299197e+24,0.0
0.0,0.0,0.0,0.0
0.0,0.0,0.0,0.0
1.794103667299197e+24,0.0,1.401298464324817e-45,0.0
0.0,0.0,0.0,0.0
0.0,0.0,1.7942352444659102e+24,0.0
0.0,0.0,0.0,0.0
0.0,0.0,0.0,0.0
1.7942358209266625e+24,0.0,0.0,0.0
0.0,0.0,0.0,0.0
0.0,0.0,1.7942665174617227e+24,0.0
1.401298464324817e-45,0.0,0.0,0.0
0.0,0.0,0.0,0.0
1.794267382152851e+24,0.0,1.401298464324817e-45,0.0
0.0,0.0,0.0,0.0
0.0,0.0,1.7943973740524956e+24,0.0
0.0,0.0,0.0,0.0
0.0,0.0,0.0,0.0
1.794398382858812e+24,0.0,1.401298464324817e-45,0.0
0.0,0.0,0.0,0.0
0.0,0.0,1.7945303923710896e+24,0.0
0.0,0.0,0.0,0.0
0.0,0.0,0.0,0.0
1.7945305364862776e+24,0.0,0.0,0.0
0.0,0.0,0.0,0.0
0.0,0.0,1.7946632665744955e+24,0.0
1.401298464324817e-45,0.0,0.0,0.0
0.0,0.0,0.0,0.0
1.7946638430352478e+24,0.0,1.401298464324817e-45,0.0
0.0,0.0,0.0,0.0
0.0,0.0,1.7947961407779014e+24,0.0
0.0,0.0,0.0,0.0
0.0,0.0,0.0,0.0
1.79479700546903e+24,0.0,0.0,0.0
0.0,0.0,0.0,0.0
0.0,0.0,1.794810696411897e+24,0.0
1.401298464324817e-45,0.0,0.0,0.0
0.0,0.0,0.0,0.0
1.7948118493334017e+24,0.0,0.0,0.0
0.0,0.0,0.0,0.0
0.0,0.0,1.794943426500115e+24,0.0
1.401298464324817e-45,0.0,0.0,0.0
0.0,0.0,0.0,0.0
1.7949438588456792e+24,0.0,1.401298464324817e-45,0.0
0.0,0.0,0.0,0.0
0.0,0.0,1.795076588933897e+24,0.0
0.0,0.0,0.0,0.0
0.0,0.0,0.0,0.0
1.7950771653946494e+24,0.0,0.0,0.0
0.0,0.0,0.0,0.0
0.0,0.0,1.7951499435646277e+24,0.0
1.401298464324817e-45,0.0,0.0,0.0
0.0,0.0,0.0,0.0
1.795150808255756e+24,0.0,0.0,0.0
0.0,0.0,0.0,0.0
0.0,0.0,1.7952828177680336e+24,0.0
1.401298464324817e-45,0.0,0.0,0.0
0.0,0.0,0.0,0.0
1.7952829618832217e+24,0.0,1.401298464324817e-45,0.0
0.0,0.0,0.0,0.0
0.0,0.0,1.7954156919714395e+24,0.0
0.0,0.0,0.0,0.0
0.0,0.0,0.0,0.0
1.7954161243170038e+24,0.0,0.0,0.0
0.0,0.0,0.0,0.0
0.0,0.0,1.7955485661748455e+24,0.0
1.401298464324817e-45,0.0,0.0,0.0
0.0,0.0,0.0,0.0
1.795549286750786e+24,0.0,1.401298464324817e-45,0.0
0.0,0.0,0.0,0.0
0.0,0.0,1.7956774051529853e+24,0.0
0.0,0.0,0.0,0.0
0.0,0.0,0.0,0.0
1.7956782698441138e+24,0.0,0.0,0.0
0.0,0.0,0.0,0.0
0.0,0.0,1.7958105675867674e+24,0.0
1.401298464324817e-45,0.0,0.0,0.0
0.0,0.0,0.0,0.0
1.795811576393084e+24,0.0,0.0,0.0
0.0,0.0,0.0,0.0
0.0,0.0,1.7958814722593007e+24,0.0
1.401298464324817e-45,0.0,-1.5288151606216093e-21,2.0471715927124023
-3.209611351379694e+26,2.113057851791382,7.078140051140554e-34,-2.4777135848999023
1.7958816163744888e+24,0.0,0.0,0.0
0.0,0.0,0.0,0.0
0.0,0.0,1.7960329373219684e+24,0.0
1.401298464324817e-45,0.0,0.0,0.0
0.0,0.0,0.0,0.0
1.7960333696675327e+24,0.0,1.401298464324817e-45,0.0
0.0,0.0,0.0,0.0
0.0,0.0,1.7961717202480855e+24,0.0
1.401298464324817e-45,0.0,0.0,0.0
0.0,0.0,0.0,0.0
1.796204866741343e+24,0.0,0.0,0.0
0.0,0.0,0.0,0.0
0.0,0.0,1.796205010856531e+24,0.0
0.0,0.0,0.0,0.0
0.0,0.0,0.0,0.0
1.7962862918226058e+24,0.0,1.401298464324817e-45,0.0
0.0,0.0,0.0,0.0
0.0,0.0,1.796286580052982e+24,0.0
1.401298464324817e-45,0.0,0.0,0.0
0.0,0.0,0.0,0.0
1.796322897080377e+24,0.0,0.0,0.0
0.0,0.0,0.0,0.0
0.0,0.0,1.7963241941170697e+24,0.0
0.0,0.0,0.0,0.0
0.0,0.0,0.0,0.0
1.7963337057194828e+24,0.0,1.401298464324817e-45,0.0
0.0,0.0,0.0,0.0
0.0,0.0,1.796334138065047e+24,0.0
0.0,0.0,0.0,0.0
0.0,0.0,0.0,0.0
1.7963423526307673e+24,0.0,1.401298464324817e-45,0.0
0.0,0.0,0.0,0.0
0.0,0.0,1.7963429290915196e+24,0.0
1.401298464324817e-45,0.0,0.0,0.0
0.0,0.0,0.0,0.0
1.7963515760028042e+24,0.0,0.0,0.0
0.0,0.0,0.0,0.0
0.0,0.0,1.7963520083483684e+24,0.0
0.0,0.0,0.0,0.0
0.0,0.0,0.0,0.0
1.796360799374841e+24,0.0,1.401298464324817e-45,0.0
0.0,0.0,0.0,0.0
0.0,0.0,1.7963615199507814e+24,0.0
0.0,0.0,0.0,0.0
0.0,0.0,0.0,0.0
1.7963695904013136e+24,0.0,1.401298464324817e-45,0.0
0.0,0.0,0.0,0.0
0.0,0.0,1.7963708874380063e+24,0.0
0.0,0.0,0.0,0.0
0.0,0.0,0.0,0.0
1.7963789578885386e+24,0.0,1.401298464324817e-45,0.0
0.0,0.0,0.0,0.0
0.0,0.0,1.7963801108100432e+24,0.0
0.0,0.0,0.0,0.0
0.0,0.0,0.0,0.0
1.7963881812605754e+24,0.0,1.401298464324817e-45,0.0
0.0,0.0,0.0,0.0
0.0,0.0,1.796389478297268e+24,0.0
0.0,0.0,0.0,0.0
0.0,0.0,0.0,0.0
1.7963975487478004e+24,0.0,1.401298464324817e-45,0.0
0.0,0.0,0.0,0.0
0.0,0.0,1.796398701669305e+24,0.0
0.0,0.0,0.0,0.0
0.0,0.0,0.0,0.0
1.7964067721198372e+24,0.0,1.401298464324817e-45,0.0
0.0,0.0,0.0,0.0
0.0,0.0,1.79640806915653e+24,0.0
0.0,0.0,0.0,0.0
0.0,0.0,0.0,0.0
1.7964161396070621e+24,0.0,1.401298464324817e-45,0.0
0.0,0.0,0.0,0.0
0.0,0.0,1.7964172925285667e+24,0.0
0.0,0.0,0.0,0.0
0.0,0.0,0.0,0.0
1.796425362979099e+24,0.0,1.401298464324817e-45,0.0
0.0,0.0,0.0,0.0
0.0,0.0,1.7964265159006036e+24,0.0
0.0,0.0,0.0,0.0
0.0,0.0,0.0,0.0
1.796434730466324e+24,0.0,1.401298464324817e-45,0.0
0.0,0.0,0.0,0.0
0.0,0.0,1.7964358833878285e+24,0.0
0.0,0.0,0.0,0.0
0.0,0.0,0.0,0.0
1.7964439538383608e+24,0.0,1.401298464324817e-45,0.0
0.0,0.0,0.0,0.0
0.0,0.0,1.7964451067598654e+24,0.0
0.0,0.0,0.0,0.0
0.0,0.0,0.0,0.0
1.7964533213255857e+24,0.0,1.401298464324817e-45,0.0
0.0,0.0,0.0,0.0
0.0,0.0,1.7964544742470903e+24,0.0
0.0,0.0,0.0,0.0
0.0,0.0,0.0,0.0
1.7964625446976226e+24,0.0,1.401298464324817e-45,0.0
0.0,0.0,0.0,0.0
0.0,0.0,1.7964636976191272e+24,0.0
0.0,0.0,0.0,0.0
0.0,0.0,0.0,0.0
1.7964719121848475e+24,0.0,1.401298464324817e-45,0.0
0.0,0.0,0.0,0.0
0.0,0.0,1.796473065106352e+24,0.0
0.0,0.0,0.0,0.0
0.0,0.0,0.0,0.0
1.7964811355568844e+24,0.0,1.401298464324817e-45,0.0
0.0,0.0,0.0,0.0
0.0,0.0,1.796482288478389e+24,0.0
0.0,0.0,0.0,0.0
0.0,0.0,0.0,0.0
1.7964905030441093e+24,0.0,1.401298464324817e-45,0.0
0.0,0.0,0.0,0.0
0.0,0.0,1.796491655965614e+24,0.0
0.0,0.0,0.0,0.0
0.0,0.0,0.0,0.0
1.7964997264161461e+24,0.0,1.401298464324817e-45,0.0
0.0,0.0,0.0,0.0
0.0,0.0,1.7965008793376507e+24,0.0
0.0,0.0,0.0,0.0
0.0,0.0,0.0,0.0
1.796509093903371e+24,0.0,1.401298464324817e-45,0.0
0.0,0.0,0.0,0.0
0.0,0.0,1.7965102468248757e+24,0.0
0.0,0.0,0.0,0.0
0.0,0.0,0.0,0.0
1.796518317275408e+24,0.0,1.401298464324817e-45,0.0
0.0,0.0,0.0,0.0
0.0,0.0,1.7965194701969125e+24,0.0
0.0,0.0,0.0,0.0
0.0,0.0,0.0,0.0
1.7965276847626329e+24,0.0,1.401298464324817e-45,0.0
0.0,0.0,0.0,0.0
0.0,0.0,1.7965288376841375e+24,0.0
0.0,0.0,0.0,0.0
0.0,0.0,0.0,0.0
1.7965370522498578e+24,0.0,1.401298464324817e-45,0.0
0.0,0.0,0.0,0.0
0.0,0.0,1.7965382051713624e+24,0.0
0.0,0.0,0.0,0.0
0.0,0.0,0.0,0.0
1.7965464197370827e+24,0.0,1.401298464324817e-45,0.0
0.0,0.0,0.0,0.0
0.0,0.0,1.7965475726585873e+24,0.0
0.0,0.0,0.0,0.0
0.0,0.0,0.0,0.0
1.7965557872243076e+24,0.0,1.401298464324817e-45,0.0
0.0,0.0,0.0,0.0
0.0,0.0,1.7965569401458123e+24,0.0
0.0,0.0,0.0,0.0
0.0,0.0,0.0,0.0
1.7965650105963445e+24,0.0,1.401298464324817e-45,0.0
0.0,0.0,0.0,0.0
0.0,0.0,1.7965663076330372e+24,0.0
0.0,0.0,0.0,0.0
0.0,0.0,0.0,0.0
1.7965743780835694e+24,0.0,1.401298464324817e-45,0.0
0.0,0.0,0.0,0.0
0.0,0.0,1.796575531005074e+24,0.0
0.0,0.0,0.0,0.0
0.0,0.0,0.0,0.0
1.7965837455707944e+24,0.0,1.401298464324817e-45,0.0
0.0,0.0,0.0,0.0
0.0,0.0,1.796584898492299e+24,0.0
0.0,0.0,0.0,0.0
0.0,0.0,0.0,0.0
1.7965931130580193e+24,0.0,1.401298464324817e-45,0.0
0.0,0.0,0.0,0.0
0.0,0.0,1.796594265979524e+24,0.0
0.0,0.0,0.0,0.0
0.0,0.0,0.0,0.0
1.7966024805452442e+24,0.0,1.401298464324817e-45,0.0
0.0,0.0,0.0,0.0
0.0,0.0,1.7966036334667488e+24,0.0
0.0,0.0,0.0,0.0
0.0,0.0,0.0,0.0
1.7966118480324692e+24,0.0,1.401298464324817e-45,0.0
0.0,0.0,0.0,0.0
0.0,0.0,1.7966130009539738e+24,0.0
0.0,0.0,0.0,0.0
0.0,0.0,0.0,0.0
1.796621215519694e+24,0.0,1.401298464324817e-45,0.0
0.0,0.0,0.0,0.0
0.0,0.0,1.7966223684411987e+24,0.0
0.0,0.0,0.0,0.0
0.0,0.0,0.0,0.0
1.796630583006919e+24,0.0,1.401298464324817e-45,0.0
0.0,0.0,0.0,0.0
0.0,0.0,1.7966317359284236e+24,0.0
0.0,0.0,0.0,0.0
0.0,0.0,0.0,0.0
1.796639950494144e+24,0.0,1.401298464324817e-45,0.0
0.0,0.0,0.0,0.0
0.0,0.0,1.7966411034156486e+24,0.0
0.0,0.0,0.0,0.0
0.0,0.0,0.0,0.0
1.796649317981369e+24,0.0,1.401298464324817e-45,0.0
0.0,0.0,0.0,0.0
0.0,0.0,1.7966504709028735e+24,0.0
0.0,0.0,0.0,0.0
0.0,0.0,0.0,0.0
1.7966586854685938e+24,0.0,1.401298464324817e-45,0.0
0.0,0.0,0.0,0.0
0.0,0.0,1.7966598383900984e+24,0.0
0.0,0.0,0.0,0.0
0.0,0.0,0.0,0.0
1.7966679088406307e+24,0.0,1.401298464324817e-45,0.0
0.0,0.0,0.0,0.0
0.0,0.0,1.7966692058773233e+24,0.0
0.0,0.0,0.0,0.0
0.0,0.0,0.0,0.0
1.7966772763278556e+24,0.0,1.401298464324817e-45,0.0
0.0,0.0,0.0,0.0
0.0,0.0,1.7966785733645483e+24,0.0
0.0,0.0,0.0,0.0
0.0,0.0,0.0,0.0
1.7966866438150805e+24,0.0,1.401298464324817e-45,0.0
0.0,0.0,0.0,0.0
0.0,0.0,1.796687796736585e+24,0.0
0.0,0.0,0.0,0.0
0.0,0.0,0.0,0.0
1.7966960113023055e+24,0.0,1.401298464324817e-45,0.0
0.0,0.0,0.0,0.0
0.0,0.0,1.79669716422381e+24,0.0
0.0,0.0,0.0,0.0
0.0,0.0,0.0,0.0
1.7967053787895304e+24,0.0,1.401298464324817e-45,0.0
0.0,0.0,0.0,0.0
0.0,0.0,1.796706531711035e+24,0.0
0.0,0.0,0.0,0.0
0.0,0.0,0.0,0.0
1.7967147462767553e+24,0.0,1.401298464324817e-45,0.0
0.0,0.0,0.0,0.0
0.0,0.0,1.79671589919826e+24,0.0
0.0,0.0,0.0,0.0
0.0,0.0,0.0,0.0
1.7967241137639802e+24,0.0,1.401298464324817e-45,0.0
0.0,0.0,0.0,0.0
0.0,0.0,1.7967252666854849e+24,0.0
0.0,0.0,0.0,0.0
0.0,0.0,0.0,0.0
1.7967334812512052e+24,0.0,1.401298464324817e-45,0.0
0.0,0.0,0.0,0.0
0.0,0.0,1.7967346341727098e+24,0.0
0.0,0.0,0.0,0.0
0.0,0.0,0.0,0.0
1.79674284873843e+24,0.0,1.401298464324817e-45,0.0
0.0,0.0,0.0,0.0
0.0,0.0,1.7967440016599347e+24,0.0
0.0,0.0,0.0,0.0
0.0,0.0,0.0,0.0
1.796752216225655e+24,0.0,1.401298464324817e-45,0.0
0.0,0.0,0.0,0.0
0.0,0.0,1.7967533691471596e+24,0.0
0.0,0.0,0.0,0.0
0.0,0.0,0.0,0.0
1.79676158371288e+24,0.0,1.401298464324817e-45,0.0
0.0,0.0,0.0,0.0
0.0,0.0,1.7967627366343846e+24,0.0
0.0,0.0,0.0,0.0
0.0,0.0,0.0,0.0
1.796770951200105e+24,0.0,1.401298464324817e-45,0.0
0.0,0.0,0.0,0.0
0.0,0.0,1.7967721041216095e+24,0.0
0.0,0.0,0.0,0.0
0.0,0.0,0.0,0.0
1.7967801745721418e+24,0.0,1.401298464324817e-45,0.0
0.0,0.0,0.0,0.0
0.0,0.0,1.7967814716088344e+24,0.0
0.0,0.0,0.0,0.0
0.0,0.0,0.0,0.0
1.7967895420593667e+24,0.0,1.401298464324817e-45,0.0
0.0,0.0,0.0,0.0
0.0,0.0,1.7967908390960594e+24,0.0
0.0,0.0,0.0,0.0
0.0,0.0,0.0,0.0
1.7967989095465916e+24,0.0,1.401298464324817e-45,0.0
0.0,0.0,0.0,0.0
0.0,0.0,1.7968000624680962e+24,0.0
0.0,0.0,0.0,0.0
0.0,0.0,0.0,0.0
1.7968082770338165e+24,0.0,1.401298464324817e-45,0.0
0.0,0.0,0.0,0.0
0.0,0.0,1.7968094299553212e+24,0.0
0.0,0.0,0.0,0.0
0.0,0.0,0.0,0.0
1.7968176445210415e+24,0.0,1.401298464324817e-45,0.0
0.0,0.0,0.0,0.0
0.0,0.0,1.796818797442546e+24,0.0
0.0,0.0,0.0,0.0
0.0,0.0,0.0,0.0
1.7968270120082664e+24,0.0,1.401298464324817e-45,0.0
0.0,0.0,0.0,0.0
0.0,0.0,1.796828164929771e+24,0.0
0.0,0.0,0.0,0.0
0.0,0.0,0.0,0.0
1.7968363794954913e+24,0.0,1.401298464324817e-45,0.0
0.0,0.0,0.0,0.0
0.0,0.0,1.796837532416996e+24,0.0
0.0,0.0,0.0,0.0
0.0,0.0,0.0,0.0
1.7968457469827163e+24,0.0,1.401298464324817e-45,0.0
0.0,0.0,0.0,0.0
0.0,0.0,1.796846899904221e+24,0.0
0.0,0.0,0.0,0.0
0.0,0.0,0.0,0.0
1.7968551144699412e+24,0.0,1.401298464324817e-45,0.0
0.0,0.0,0.0,0.0
0.0,0.0,1.7968562673914458e+24,0.0
0.0,0.0,0.0,0.0
0.0,0.0,0.0,0.0
1.796864481957166e+24,0.0,1.401298464324817e-45,0.0
0.0,0.0,0.0,0.0
0.0,0.0,1.7968656348786707e+24,0.0
0.0,0.0,0.0,0.0
0.0,0.0,0.0,0.0
1.796873849444391e+24,0.0,1.401298464324817e-45,0.0
0.0,0.0,0.0,0.0
0.0,0.0,1.7968750023658957e+24,0.0
0.0,0.0,0.0,0.0
0.0,0.0,0.0,0.0
1.796883216931616e+24,0.0,1.401298464324817e-45,0.0
0.0,0.0,0.0,0.0
0.0,0.0,1.7968843698531206e+24,0.0
0.0,0.0,0.0,0.0
0.0,0.0,0.0,0.0
1.796892584418841e+24,0.0,1.401298464324817e-45,0.0
0.0,0.0,0.0,0.0
0.0,0.0,1.7968937373403455e+24,0.0
0.0,0.0,0.0,0.0
0.0,0.0,0.0,0.0
1.7969019519060659e+24,0.0,1.401298464324817e-45,0.0
0.0,0.0,0.0,0.0
0.0,0.0,1.7969031048275705e+24,0.0
0.0,0.0,0.0,0.0
0.0,0.0,0.0,0.0
1.7969113193932908e+24,0.0,1.401298464324817e-45,0.0
0.0,0.0,0.0,0.0
0.0,0.0,1.7969124723147954e+24,0.0
0.0,0.0,0.0,0.0
0.0,0.0,0.0,0.0
1.7969205427653276e+24,0.0,1.401298464324817e-45,0.0
0.0,0.0,0.0,0.0
0.0,0.0,1.7969218398020203e+24,0.0
0.0,0.0,0.0,0.0
0.0,0.0,0.0,0.0
1.7969299102525526e+24,0.0,1.401298464324817e-45,0.0
0.0,0.0,0.0,0.0
0.0,0.0,1.7969310631740572e+24,0.0
0.0,0.0,0.0,0.0
0.0,0.0,0.0,0.0
1.7969392777397775e+24,0.0,1.401298464324817e-45,0.0
0.0,0.0,0.0,0.0
0.0,0.0,1.796940430661282e+24,0.0
0.0,0.0,0.0,0.0
0.0,0.0,0.0,0.0
1.7969486452270024e+24,0.0,1.401298464324817e-45,0.0
0.0,0.0,0.0,0.0
0.0,0.0,1.796949798148507e+24,0.0
0.0,0.0,0.0,0.0
0.0,0.0,0.0,0.0
1.7969580127142274e+24,0.0,1.401298464324817e-45,0.0
0.0,0.0,0.0,0.0
0.0,0.0,1.796959165635732e+24,0.0
0.0,0.0,0.0,0.0
0.0,0.0,0.0,0.0
1.7969673802014523e+24,0.0,1.401298464324817e-45,0.0
0.0,0.0,0.0,0.0
0.0,0.0,1.796968533122957e+24,0.0
0.0,0.0,0.0,0.0
0.0,0.0,0.0,0.0
1.7969767476886772e+24,0.0,1.401298464324817e-45,0.0
0.0,0.0,0.0,0.0
0.0,0.0,1.7969779006101818e+24,0.0
0.0,0.0,0.0,0.0
0.0,0.0,0.0,0.0
1.7969861151759022e+24,0.0,1.401298464324817e-45,0.0
0.0,0.0,0.0,0.0
0.0,0.0,1.7969872680974068e+24,0.0
0.0,0.0,0.0,0.0
0.0,0.0,0.0,0.0
1.796995482663127e+24,0.0,1.401298464324817e-45,0.0
0.0,0.0,0.0,0.0
0.0,0.0,1.7969966355846317e+24,0.0
0.0,0.0,0.0,0.0
0.0,0.0,0.0,0.0
1.797004850150352e+24,0.0,1.401298464324817e-45,0.0
0.0,0.0,0.0,0.0
0.0,0.0,1.7970060030718566e+24,0.0
0.0,0.0,0.0,0.0
0.0,0.0,0.0,0.0
1.797014217637577e+24,0.0,1.401298464324817e-45,0.0
0.0,0.0,0.0,0.0
0.0,0.0,1.7970153705590815e+24,0.0
0.0,0.0,0.0,0.0
0.0,0.0,0.0,0.0
1.797023585124802e+24,0.0,1.401298464324817e-45,0.0
0.0,0.0,0.0,0.0
0.0,0.0,1.7970247380463065e+24,0.0
0.0,0.0,0.0,0.0
0.0,0.0,0.0,0.0
1.7970329526120268e+24,0.0,1.401298464324817e-45,0.0
0.0,0.0,0.0,0.0
0.0,0.0,1.7970341055335314e+24,0.0
0.0,0.0,0.0,0.0
0.0,0.0,0.0,0.0
1.7970421759840637e+24,0.0,1.401298464324817e-45,0.0
0.0,0.0,0.0,0.0
0.0,0.0,1.7970434730207563e+24,0.0
0.0,0.0,0.0,0.0
0.0,0.0,0.0,0.0
1.7970515434712886e+24,0.0,1.401298464324817e-45,0.0
0.0,0.0,0.0,0.0
0.0,0.0,1.7970526963927932e+24,0.0
0.0,0.0,0.0,0.0
0.0,0.0,0.0,0.0
1.7970609109585135e+24,0.0,1.401298464324817e-45,0.0
0.0,0.0,0.0,0.0
