ax,ay,az,gx,gy,gz,temp_raw,flags,ax_g,ay_g,az_g,a_mag
13375,26553,0,0,2,0,0,0,1.671875,3.319125,0.0,3.7164171968779285
-23624,-28332,29282,16406,8965,-25260,3029,16400,-2.953,-3.5415,3.66025,5.887262633219279
-10856,-11146,-31699,-16373,13435,26553,0,0,-1.357,-1.39325,-3.962375,4.413956298279923
2,0,0,0,-18945,-17734,12539,-16392,0.00025,0.0,0.0,0.00025
-32211,-24654,29701,16420,-6357,-31131,211,-16362,-4.026375,-3.08175,3.712625,6.284302912316528
13495,26553,0,0,2,0,0,0,1.6868750000000001,3.319125,0.0,3.7231892285042405
-23997,1072,-24299,-16402,31779,-7054,-14844,16423,-2.999625,0.134,-3.037375,4.270989701608984
12212,26443,22363,-16363,13555,26553,0,0,1.5265,3.305375,2.795375,4.5901881803745255
2,0,0,0,-12368,-31663,-7636,16343,0.00025,0.0,0.0,0.00025
-305,16704,-29105,16426,-28757,-4363,-5827,-16364,-0.038125,2.088,-3.638125,4.194895830798424
13615,26553,0,0,2,0,0,0,1.701875,3.319125,0.0,3.7300092870192696
25315,-32718,8698,16354,-12971,-23834,-29430,16428,3.164375,-4.08975,1.08725,5.284073879652422
-29091,7558,27222,-16358,13675,26553,0,0,-3.636375,0.94475,3.40275,5.068972604544732
2,0,0,0,-30828,5154,-22129,-16376,0.00025,0.0,0.0,0.00025
-24057,-11311,-25931,16429,-17252,-24349,-11325,-16369,-3.0071250000000003,-1.413875,-3.241375,4.642020591496229
13735,26553,0,0,2,0,0,0,1.716875,3.319125,0.0,3.736877109465871
-10739,23780,9928,-16376,-4174,24369,31564,16431,-1.342375,2.9725,1.241,3.4896716021174545
21964,-31185,12818,-16371,13802,26553,0,0,2.7455000000000003,-3.8981250000000003,1.60225,5.029945708268133
2,0,0,0,26758,-17112,-8282,16384,0.00025,0.0,0.0,0.00025
29757,13572,6888,16431,-15986,30990,-32538,-16360,3.719625,1.6965000000000001,0.861,4.17792333469931
13862,26553,0,0,2,0,0,0,1.73275,3.319125,0.0,3.744197287553769
30488,-19184,-20801,16359,32604,5184,-19580,16430,3.811,-2.398,-2.6001250000000002,5.199497573383894
15675,2215,3608,-16364,13923,26553,0,0,1.959375,0.276875,0.451,2.0295839860055067
2,0,0,0,0,0,0,0,0.00025,0.0,0.0,0.00025
0,0,0,0,0,0,0,0,0.0,0.0,0.0,0.0
15008,26553,0,0,2,0,0,0,1.8760000000000001,3.319125,0.0,3.8126062956493425
0,0,0,0,0,0,0,0,0.0,0.0,0.0,0.0
0,0,0,0,15068,26553,0,0,0.0,0.0,0.0,0.0
2,0,0,0,16594,4739,-21514,16413,0.00025,0.0,0.0,0.00025
-27286,23824,3814,16439,-25064,13926,-15575,-16397,-3.41075,2.978,0.47675,4.552910072140675
15128,26553,0,0,2,0,0,0,1.891,3.319125,0.0,3.8200093933948644
5457,25949,2450,16345,20786,-20099,30547,16438,0.682125,3.243625,0.30625,3.3286914424064604
-9360,23958,-12425,-16378,15189,26553,0,0,-1.17,2.9947500000000002,-1.553125,3.570661679314494
2,0,0,0,0,0,0,0,0.00025,0.0,0.0,0.00025
0,0,0,0,0,0,0,0,0.0,0.0,0.0,0.0
15249,26553,0,0,2,0,0,0,1.906125,3.319125,0.0,3.8275192071693125
-5170,20473,-1328,-16367,28313,-20655,32314,16439,-0.64625,2.559125,-0.166,2.644676885391673
25762,-20144,-7190,-16383,15309,26553,0,0,3.22025,-2.5180000000000002,-0.89875,4.185461220104662
2,0,0,0,0,0,0,0,0.00025,0.0,0.0,0.00025
0,0,0,0,0,0,0,0,0.0,0.0,0.0,0.0
15369,26553,0,0,2,0,0,0,1.921125,3.319125,0.0,3.8350113469519225
-25270,14738,-13792,-16378,-3945,-5195,-14710,16416,-3.15875,1.84225,-1.724,4.042741968639602
29753,-22780,6246,-16363,15429,26553,0,0,3.719125,-2.8475,0.78075,4.748654291283479
2,0,0,0,10403,-12438,-14409,16348,0.00025,0.0,0.0,0.00025
-16669,9799,28191,16388,-29941,4024,27471,-16367,-2.083625,1.224875,3.523875,4.273114428829984
16292,26553,0,0,2,0,0,0,2.0365,3.319125,0.0,3.894088213641931
20260,3560,10384,-16426,-18752,4023,-28250,16378,2.5325,0.445,1.298,2.8803446408372735
-32760,-9983,23929,-16374,16767,26553,0,0,-4.095,-1.247875,2.9911250000000003,5.222360173451272
2,0,0,0,0,0,0,0,0.00025,0.0,0.0,0.00025
0,0,0,0,0,0,0,0,0.0,0.0,0.0,0.0
18789,26553,0,0,2,0,0,0,2.348625,3.319125,0.0,4.066033713122654
22146,-5857,-4652,16411,-24142,9064,960,16419,2.76825,-0.732125,-0.5815,2.9218756524063445
6341,-9142,27440,-16358,18849,26553,0,0,0.792625,-1.14275,3.43,3.7012203329611437
2,0,0,0,-30288,16313,17720,16363,0.00025,0.0,0.0,0.00025
27813,-4773,-13851,16388,-23633,17623,18187,-16363,3.476625,-0.596625,-1.731375,3.9294455298266953
19032,26553,0,0,2,0,0,0,2.379,3.319125,0.0,4.083654217196285
16576,14974,-12793,16345,-13604,23261,29356,16381,2.072,1.87175,-1.5991250000000001,3.2177372217328437
-16898,-28979,-25500,-16363,19345,26553,0,0,-2.11225,-3.622375,-3.1875,5.267196308580591
2,0,0,0,-5546,-30449,12912,16373,0.00025,0.0,0.0,0.00025
-25770,-19016,-16529,16397,0,2549,21655,-16385,-3.22125,-2.3770000000000002,-2.066125,4.505047511195082
19405,26553,0,0,2,0,0,0,2.425625,3.319125,0.0,4.110991049157126
1271,9744,31697,16403,18935,27101,29111,16413,0.15887500000000002,1.218,3.962125,4.148156190556233
-11688,2936,28097,-16382,19466,26553,0,0,-1.461,0.367,3.512125,3.8215483793385374
2,0,0,0,-29573,-11162,11447,16389,0.00025,0.0,0.0,0.00025
-26984,-4134,-19588,16425,10691,-25871,-25871,-16382,-3.373,-0.51675,-2.4485,4.199918072117598
19526,26553,0,0,2,0,0,0,2.44075,3.319125,0.0,4.119933413069318
0,0,0,0,0,0,0,0,0.0,0.0,0.0,0.0
0,0,0,0,19586,26553,0,0,0.0,0.0,0.0,0.0
2,0,0,0,18276,-16179,-5573,16387,0.00025,0.0,0.0,0.00025
-17664,11364,5354,16435,13269,26832,20601,-16368,-2.208,1.4205,0.66925,2.7094242584910915
19646,26553,0,0,2,0,0,0,2.45575,3.319125,0.0,4.128837466905788
-20096,30177,26253,-16408,-31060,-12824,30495,16434,-2.512,3.772125,3.281625,5.59536716009325
-24954,-31663,10288,-16378,19706,26553,0,0,-3.11925,-3.957875,1.286,5.2007971579484815
2,0,0,0,-10052,-32374,-12022,-16397,0.00025,0.0,0.0,0.00025
17143,7710,23584,16433,-23323,-4122,-14693,-16383,2.142875,0.96375,2.948,3.769805210899497
19766,26553,0,0,2,0,0,0,2.4707500000000002,3.319125,0.0,4.137776737346398
10896,-6955,26208,-16429,1435,7521,-18193,16388,1.362,-0.869375,3.2760000000000002,3.6528116418212697
-31605,27203,-3604,-16385,19873,26553,0,0,-3.950625,3.400375,-0.4505,5.2319153549393365
2,0,0,0,8983,10379,4132,16368,0.00025,0.0,0.0,0.00025
-29436,30654,32355,16399,24966,-2098,-31566,-16380,-3.6795,3.83175,4.0443750000000005,6.676675628868383
19933,26553,0,0,2,0,0,0,2.491625,3.319125,0.0,4.150275401253512
13446,16581,27425,16366,-7079,22696,3920,16396,1.68075,2.072625,3.428125,4.344276230714387
18502,-17512,-16614,-16382,19993,26553,0,0,2.31275,-2.189,-2.07675,3.801765921910501
2,0,0,0,-23339,-24138,2923,16339,0.00025,0.0,0.0,0.00025
-27435,-14640,-8062,16396,18152,9866,-14570,-16383,-3.4293750000000003,-1.83,-1.00775,4.015603684768331
20053,26553,0,0,2,0,0,0,2.506625,3.319125,0.0,4.159297976371734
3041,-3850,-9420,16369,3412,18206,-20619,16394,0.380125,-0.48125,-1.1775,1.3276305314826864
27932,17682,-12047,-16386,20113,26553,0,0,3.4915000000000003,2.21025,-1.505875,4.398117418637774
2,0,0,0,-11256,27637,-2710,16367,0.00025,0.0,0.0,0.00025
-8095,16937,-73,16395,24,30270,24776,-16386,-1.011875,2.117125,-0.009125,2.346527763925882
20173,26553,0,0,2,0,0,0,2.5216250000000002,3.319125,0.0,4.168355000026989
20660,12678,1983,16366,-8344,-8155,-26250,16395,2.5825,1.58475,0.247875,3.0400955294406455
-27882,959,-511,-16382,20233,26553,0,0,-3.48525,0.11987500000000001,-0.063875,3.4878958691093405
2,0,0,0,26106,-27940,-26757,16373,0.00025,0.0,0.0,0.00025
-21076,25059,22584,16394,-32170,-7915,22544,-16381,-2.6345,3.132375,2.823,4.972091349786828
20293,26553,0,0,2,0,0,0,2.536625,3.319125,0.0,4.177446248158078
3480,6484,-27739,-16414,29480,4988,32466,16395,0.435,0.8105,-3.467375,3.5873144050424406
26129,13288,-1753,-16386,20353,26553,0,0,3.266125,1.661,-0.21912500000000001,3.6707641277055654
2,0,0,0,-3326,3808,-15298,-16397,0.00025,0.0,0.0,0.00025
-28063,20512,-32373,16396,22798,31494,10506,-16383,-3.507875,2.564,-4.046625,5.937546370871557
20526,26553,0,0,2,0,0,0,2.56575,3.319125,0.0,4.195195326575987
-31132,8880,21131,-16408,-7194,-20698,-31712,16397,-3.8915,1.11,2.641375,4.832466672479491
-24524,29405,-9523,-16386,20586,26553,0,0,-3.0655,3.675625,-1.190375,4.931987634944962
2,0,0,0,-29620,-26355,15060,16372,0.00025,0.0,0.0,0.00025
-31513,24656,-2558,16394,-10564,-21619,5452,-16389,-3.939125,3.082,-0.31975000000000003,5.011753169114078
20646,26553,0,0,2,0,0,0,2.58075,3.319125,0.0,4.204385963268002
4364,-2663,-7963,16375,-5214,-4030,-26732,16394,0.5455,-0.33287500000000003,-0.995375,1.182855615132295
-20581,-30416,5270,-16379,20808,26553,0,0,-2.572625,-3.802,0.6587500000000001,4.6376238477398095
2,0,0,0,-31930,8405,6681,16365,0.00025,0.0,0.0,0.00025
4138,32579,26032,16392,32405,25350,-25821,-16381,0.51725,4.072375,3.254,5.23834913910146
20925,26553,0,0,2,0,0,0,2.615625,3.319125,0.0,4.2258827369260965
0,0,0,0,0,0,0,0,0.0,0.0,0.0,0.0
0,0,0,0,21012,26553,0,0,0.0,0.0,0.0,0.0
2,0,0,0,764,-27947,-15694,-16404,0.00025,0.0,0.0,0.00025
18385,-8886,-23513,16390,16362,-20714,-11755,-16383,2.298125,-1.1107500000000001,-2.939125,3.8927624951633004
21072,26553,0,0,2,0,0,0,2.634,3.319125,0.0,4.237280586133635
25792,-24163,14510,-16399,-15168,31447,4482,16391,3.224,-3.020375,1.81375,4.775618305845328
-12748,29571,-29029,-16383,21232,26553,0,0,-1.5935000000000001,3.696375,-3.628625,5.419349571789035
2,0,0,0,15376,-3035,-7721,16366,0.00025,0.0,0.0,0.00025
-23953,-27671,-26118,16393,1478,1509,-11113,-16379,-2.994125,-3.458875,-3.2647500000000003,5.620248512632693
21292,26553,0,0,2,0,0,0,2.6615,3.319125,0.0,4.254429810870665
-4008,-25893,-6231,16372,-14217,12713,-26243,16398,-0.501,-3.236625,-0.778875,3.366509862788167
21657,11996,14300,-16379,21352,26553,0,0,2.707125,1.4995,1.7875,3.5738190029190062
2,0,0,0,-3243,53,-15751,16409,0.00025,0.0,0.0,0.00025
-11319,-2612,4097,16401,8568,16668,-3932,-16380,-1.414875,-0.3265,0.512125,1.5397225500881646
21412,26553,0,0,2,0,0,0,2.6765,3.319125,0.0,4.263829618503183
-12236,16310,-30842,16385,24946,16528,-30373,16401,-1.5295,2.03875,-3.8552500000000003,4.621560815893263
-22220,29189,-21228,-16379,21472,26553,0,0,-2.7775,3.648625,-2.6535,5.297927225870982
2,0,0,0,0,0,0,0,0.00025,0.0,0.0,0.00025
0,0,0,0,0,0,0,0,0.0,0.0,0.0,0.0
21532,26553,0,0,2,0,0,0,2.6915,3.319125,0.0,4.273261402678872
-21720,23634,7649,16391,-32693,13223,8229,16385,-2.715,2.95425,0.956125,4.124680966829435
18564,-28221,-18099,-16382,21592,26553,0,0,2.3205,-3.527625,-2.262375,4.790323478769467
2,0,0,0,-27080,-3113,-27404,16362,0.00025,0.0,0.0,0.00025
-12559,28531,-7876,16390,25946,1761,-4488,-16384,-1.5698750000000001,3.5663750000000003,-0.9845,4.019051928782458
21822,26553,0,0,2,0,0,0,2.72775,3.319125,0.0,4.296185613788701
-18856,26517,16300,16378,10512,31948,-12913,16392,-2.357,3.314625,2.0375,4.549021228860666
-11924,28842,30172,-16376,21885,26553,0,0,-1.4905,3.6052500000000003,3.7715,5.426198490886599
2,0,0,0,-3573,-11301,7533,16386,0.00025,0.0,0.0,0.00025
6752,268,27359,16392,-6301,-29758,9104,-16380,0.844,0.0335,3.419875,3.522641518182769
21945,26553,0,0,2,0,0,0,2.743125,3.319125,0.0,4.305963949134967
-4593,16014,20025,16390,-3435,-27803,-8018,16402,-0.574125,2.00175,2.5031250000000003,3.256110769576183
339,32578,861,-16381,22005,26553,0,0,0.042375,4.07225,0.107625,4.073892345625987
2,0,0,0,0,0,0,0,0.00025,0.0,0.0,0.00025
0,0,0,0,0,0,0,0,0.0,0.0,0.0,0.0
22065,26553,0,0,2,0,0,0,2.758125,3.319125,0.0,4.315535225351544
0,0,0,0,0,0,0,0,0.0,0.0,0.0,0.0
0,0,0,0,22125,26553,0,0,0.0,0.0,0.0,0.0
2,0,0,0,0,0,0,0,0.00025,0.0,0.0,0.00025
0,0,0,0,0,0,0,0,0.0,0.0,0.0,0.0
22186,26553,0,0,2,0,0,0,2.77325,3.319125,0.0,4.325217489112542
0,0,0,0,0,0,0,0,0.0,0.0,0.0,0.0
0,0,0,0,22246,26553,0,0,0.0,0.0,0.0,0.0
2,0,0,0,0,0,0,0,0.00025,0.0,0.0,0.00025
0,0,0,0,0,0,0,0,0.0,0.0,0.0,0.0
22310,26553,0,0,2,0,0,0,2.78875,3.319125,0.0,4.335172122087542
0,0,0,0,0,0,0,0,0.0,0.0,0.0,0.0
0,0,0,0,22371,26553,0,0,0.0,0.0,0.0,0.0
2,0,0,0,0,0,0,0,0.00025,0.0,0.0,0.00025
0,0,0,0,0,0,0,0,0.0,0.0,0.0,0.0
22432,26553,0,0,2,0,0,0,2.8040000000000003,3.319125,0.0,4.344997901682462
0,0,0,0,0,0,0,0,0.0,0.0,0.0,0.0
0,0,0,0,22492,26553,0,0,0.0,0.0,0.0,0.0
2,0,0,0,0,0,0,0,0.00025,0.0,0.0,0.00025
0,0,0,0,0,0,0,0,0.0,0.0,0.0,0.0
22552,26553,0,0,2,0,0,0,2.819,3.319125,0.0,4.35469307364193
0,0,0,0,0,0,0,0,0.0,0.0,0.0,0.0
0,0,0,0,22625,26553,0,0,0.0,0.0,0.0,0.0
2,0,0,0,-3392,16510,-13563,16293,0.00025,0.0,0.0,0.00025
-6302,-3356,5982,16438,23940,-30151,19454,-16365,-0.7877500000000001,-0.4195,0.74775,1.1643282934808379
22685,26553,0,0,2,0,0,0,2.835625,3.319125,0.0,4.365473617633028
-30944,15561,-25656,16374,-24872,-22407,7182,16401,-3.868,1.945125,-3.207,5.38792949709116
2072,28308,7437,-16376,22746,26553,0,0,0.259,3.5385,0.929625,3.6677330724338435
2,0,0,0,-27574,27824,14273,16389,0.00025,0.0,0.0,0.00025
6950,8610,-6765,16376,5942,-549,-23273,-16382,0.86875,1.07625,-0.8456250000000001,1.6211484403425247
22806,26553,0,0,2,0,0,0,2.85075,3.319125,0.0,4.375313283426114
-31287,28188,28454,16391,30228,22608,445,16392,-3.910875,3.5235,3.55675,6.352988751613291
6075,13787,17125,-16369,22867,26553,0,0,0.759375,1.723375,2.140625,2.851130858427056
2,0,0,0,20887,-8532,-10356,16391,0.00025,0.0,0.0,0.00025
-19050,-24430,24467,16386,23208,-1180,-30654,-16370,-2.38125,-3.05375,3.058375,4.934510944929092
22927,26553,0,0,2,0,0,0,2.865875,3.319125,0.0,4.38518303851162
28229,-14385,-9615,16390,28245,32159,-3280,16391,3.528625,-1.798125,-1.201875,4.138713740025396
-3745,21417,9328,-16378,23184,26553,0,0,-0.468125,2.677125,1.166,2.957312171761717
2,0,0,0,-14889,7922,2939,16342,0.00025,0.0,0.0,0.00025
-26924,20236,28064,16389,8434,16884,-10594,-16363,-3.3655,2.5295,3.508,5.480056979630778
23244,26553,0,0,2,0,0,0,2.9055,3.319125,0.0,4.411181362812575
28272,23800,29853,-16443,1362,8482,-25811,16393,3.5340000000000003,2.975,3.731625,5.938417814588748
28248,-4046,-1632,-16364,23354,26553,0,0,3.531,-0.50575,-0.20400000000000001,3.572864405837423
2,0,0,0,-19146,-5730,-31312,16366,0.00025,0.0,0.0,0.00025
-22231,-14397,-14772,16398,9546,-10560,15616,-16367,-2.778875,-1.799625,-1.8465,3.790825590323301
23414,26553,0,0,2,0,0,0,2.92675,3.319125,0.0,4.425206924893456
24823,-20592,26748,16363,9936,-32149,-24350,16412,3.102875,-2.574,3.3435,5.237585466188118
18406,-5077,23628,-16365,23474,26553,0,0,2.30075,-0.634625,2.9535,3.7972834636256745
2,0,0,0,-10124,-16516,307,16403,0.00025,0.0,0.0,0.00025
-20419,-31561,-21198,16412,-23000,26676,27477,-16365,-2.552375,-3.945125,-2.64975,5.394423460273582
23534,26553,0,0,2,0,0,0,2.94175,3.319125,0.0,4.435141917472879
-27765,-12657,-16959,16402,-23796,3098,-562,16422,-3.470625,-1.582125,-2.119875,4.3637400726756175
24144,29523,4764,-16366,23594,26553,0,0,3.0180000000000002,3.690375,0.5955,4.804353431069055
0,0,0,0,0,0,0,0,0.0,0.0,0.0,0.0
0,0,0,0,0,0,0,0,0.0,0.0,0.0,0.0
9726,26556,0,0,1,0,0,0,1.21575,3.3195,0.0,3.5351277646642423
0,0,0,0,0,0,0,0,0.0,0.0,0.0,0.0
0,0,0,0,9734,26556,0,0,0.0,0.0,0.0,0.0
0,0,0,0,0,0,0,0,0.0,0.0,0.0,0.0
0,0,0,0,0,0,0,0,0.0,0.0,0.0,0.0
9791,26556,0,0,1,0,0,0,1.223875,3.3195,0.0,3.537930223396866
0,0,0,0,0,0,0,0,0.0,0.0,0.0,0.0
0,0,0,0,9799,26556,0,0,0.0,0.0,0.0,0.0
0,0,0,0,0,0,0,0,0.0,0.0,0.0,0.0
0,0,0,0,0,0,0,0,0.0,0.0,0.0,0.0
9855,26556,0,0,1,0,0,0,1.231875,3.3195,0.0,3.5407056169109854
0,0,0,0,0,0,0,0,0.0,0.0,0.0,0.0
0,0,0,0,9863,26556,0,0,0.0,0.0,0.0,0.0
0,0,0,0,0,0,0,0,0.0,0.0,0.0,0.0
0,0,0,0,0,0,0,0,0.0,0.0,0.0,0.0
9920,26556,0,0,1,0,0,0,1.24,3.3195,0.0,3.5435406375544782
0,0,0,0,0,0,0,0,0.0,0.0,0.0,0.0
0,0,0,0,9928,26556,0,0,0.0,0.0,0.0,0.0
0,0,0,0,0,0,0,0,0.0,0.0,0.0,0.0
0,0,0,0,0,0,0,0,0.0,0.0,0.0,0.0
9984,26556,0,0,1,0,0,0,1.248,3.3195,0.0,3.5463480159172196
0,0,0,0,0,0,0,0,0.0,0.0,0.0,0.0
0,0,0,0,9993,26556,0,0,0.0,0.0,0.0,0.0
0,0,0,0,0,0,0,0,0.0,0.0,0.0,0.0
0,0,0,0,0,0,0,0,0.0,0.0,0.0,0.0
10049,26556,0,0,1,0,0,0,1.256125,3.3195,0.0,3.5492154436755454
0,0,0,0,0,0,0,0,0.0,0.0,0.0,0.0
0,0,0,0,10057,26556,0,0,0.0,0.0,0.0,0.0
0,0,0,0,0,0,0,0,0.0,0.0,0.0,0.0
0,0,0,0,0,0,0,0,0.0,0.0,0.0,0.0
10114,26556,0,0,1,0,0,0,1.26425,3.3195,0.0,3.552099141704803
0,0,0,0,0,0,0,0,0.0,0.0,0.0,0.0
0,0,0,0,10122,26556,0,0,0.0,0.0,0.0,0.0
0,0,0,0,0,0,0,0,0.0,0.0,0.0,0.0
0,0,0,0,0,0,0,0,0.0,0.0,0.0,0.0
10178,26556,0,0,1,0,0,0,1.27225,3.3195,0.0,3.55495433339164
0,0,0,0,0,0,0,0,0.0,0.0,0.0,0.0
0,0,0,0,10186,26556,0,0,0.0,0.0,0.0,0.0
0,0,0,0,0,0,0,0,0.0,0.0,0.0,0.0
0,0,0,0,0,0,0,0,0.0,0.0,0.0,0.0
10243,26556,0,0,1,0,0,0,1.280375,3.3195,0.0,3.5578702042970876
0,0,0,0,0,0,0,0,0.0,0.0,0.0,0.0
0,0,0,0,10251,26556,0,0,0.0,0.0,0.0,0.0
0,0,0,0,0,0,0,0,0.0,0.0,0.0,0.0
0,0,0,0,0,0,0,0,0.0,0.0,0.0,0.0
10307,26556,0,0,1,0,0,0,1.288375,3.3195,0.0,3.5607569968512314
0,0,0,0,0,0,0,0,0.0,0.0,0.0,0.0
0,0,0,0,10315,26556,0,0,0.0,0.0,0.0,0.0
0,0,0,0,0,0,0,0,0.0,0.0,0.0,0.0
0,0,0,0,0,0,0,0,0.0,0.0,0.0,0.0
10372,26556,0,0,1,0,0,0,1.2965,3.3195,0.0,3.563704883965562
0,0,0,0,0,0,0,0,0.0,0.0,0.0,0.0
0,0,0,0,10380,26556,0,0,0.0,0.0,0.0,0.0
0,0,0,0,0,0,0,0,0.0,0.0,0.0,0.0
0,0,0,0,0,0,0,0,0.0,0.0,0.0,0.0
10437,26556,0,0,1,0,0,0,1.304625,3.3195,0.0,3.5666688437006595
0,0,0,0,0,0,0,0,0.0,0.0,0.0,0.0
0,0,0,0,10445,26556,0,0,0.0,0.0,0.0,0.0
0,0,0,0,0,0,0,0,0.0,0.0,0.0,0.0
0,0,0,0,0,0,0,0,0.0,0.0,0.0,0.0
10502,26556,0,0,1,0,0,0,1.31275,3.3195,0.0,3.5696488360201486
0,0,0,0,0,0,0,0,0.0,0.0,0.0,0.0
0,0,0,0,10510,26556,0,0,0.0,0.0,0.0,0.0
0,0,0,0,0,0,0,0,0.0,0.0,0.0,0.0
0,0,0,0,0,0,0,0,0.0,0.0,0.0,0.0
10567,26556,0,0,1,0,0,0,1.320875,3.3195,0.0,3.572644820805029
0,0,0,0,0,0,0,0,0.0,0.0,0.0,0.0
0,0,0,0,10575,26556,0,0,0.0,0.0,0.0,0.0
0,0,0,0,0,0,0,0,0.0,0.0,0.0,0.0
0,0,0,0,0,0,0,0,0.0,0.0,0.0,0.0
10632,26556,0,0,1,0,0,0,1.329,3.3195,0.0,3.5756567578558207
0,0,0,0,0,0,0,0,0.0,0.0,0.0,0.0
0,0,0,0,10640,26556,0,0,0.0,0.0,0.0,0.0
0,0,0,0,0,0,0,0,0.0,0.0,0.0,0.0
0,0,0,0,0,0,0,0,0.0,0.0,0.0,0.0
10697,26556,0,0,1,0,0,0,1.3371250000000001,3.3195,0.0,3.5786846068946896
0,0,0,0,0,0,0,0,0.0,0.0,0.0,0.0
0,0,0,0,10706,26556,0,0,0.0,0.0,0.0,0.0
0,0,0,0,0,0,0,0,0.0,0.0,0.0,0.0
0,0,0,0,0,0,0,0,0.0,0.0,0.0,0.0
10762,26556,0,0,1,0,0,0,1.34525,3.3195,0.0,3.5817283275675726
0,0,0,0,0,0,0,0,0.0,0.0,0.0,0.0
0,0,0,0,10771,26556,0,0,0.0,0.0,0.0,0.0
0,0,0,0,0,0,0,0,0.0,0.0,0.0,0.0
0,0,0,0,0,0,0,0,0.0,0.0,0.0,0.0
10827,26556,0,0,1,0,0,0,1.353375,3.3195,0.0,3.584787879446286
0,0,0,0,0,0,0,0,0.0,0.0,0.0,0.0
0,0,0,0,10836,26556,0,0,0.0,0.0,0.0,0.0
0,0,0,0,0,0,0,0,0.0,0.0,0.0,0.0
0,0,0,0,0,0,0,0,0.0,0.0,0.0,0.0
10892,26556,0,0,1,0,0,0,1.3615,3.3195,0.0,3.587863222030628
0,0,0,0,0,0,0,0,0.0,0.0,0.0,0.0
0,0,0,0,10901,26556,0,0,0.0,0.0,0.0,0.0
0,0,0,0,0,0,0,0,0.0,0.0,0.0,0.0
0,0,0,0,0,0,0,0,0.0,0.0,0.0,0.0
10958,26556,0,0,1,0,0,0,1.36975,3.3195,0.0,3.5910019928287427
0,0,0,0,0,0,0,0,0.0,0.0,0.0,0.0
0,0,0,0,10966,26556,0,0,0.0,0.0,0.0,0.0
0,0,0,0,0,0,0,0,0.0,0.0,0.0,0.0
0,0,0,0,0,0,0,0,0.0,0.0,0.0,0.0
13458,26556,0,0,1,0,0,0,1.68225,3.3195,0.0,3.7214305465103066
0,0,0,0,0,0,0,0,0.0,0.0,0.0,0.0
0,0,0,0,13466,26556,0,0,0.0,0.0,0.0,0.0
0,0,0,0,0,0,0,0,0.0,0.0,0.0,0.0
0,0,0,0,0,0,0,0,0.0,0.0,0.0,0.0
13522,26556,0,0,1,0,0,0,1.69025,3.3195,0.0,3.7250537328339304
0,0,0,0,0,0,0,0,0.0,0.0,0.0,0.0
0,0,0,0,13530,26556,0,0,0.0,0.0,0.0,0.0
0,0,0,0,0,0,0,0,0.0,0.0,0.0,0.0
0,0,0,0,0,0,0,0,0.0,0.0,0.0,0.0
13587,26556,0,0,1,0,0,0,1.698375,3.3195,0.0,3.728747496227788
0,0,0,0,0,0,0,0,0.0,0.0,0.0,0.0
0,0,0,0,13595,26556,0,0,0.0,0.0,0.0,0.0
0,0,0,0,0,0,0,0,0.0,0.0,0.0,0.0
0,0,0,0,0,0,0,0,0.0,0.0,0.0,0.0
13651,26556,0,0,1,0,0,0,1.706375,3.3195,0.0,3.7323981420294645
0,0,0,0,0,0,0,0,0.0,0.0,0.0,0.0
0,0,0,0,13659,26556,0,0,0.0,0.0,0.0,0.0
0,0,0,0,0,0,0,0,0.0,0.0,0.0,0.0
0,0,0,0,0,0,0,0,0.0,0.0,0.0,0.0
13716,26556,0,0,1,0,0,0,1.7145000000000001,3.3195,0.0,3.736119711679485
0,0,0,0,0,0,0,0,0.0,0.0,0.0,0.0
0,0,0,0,13724,26556,0,0,0.0,0.0,0.0,0.0
0,0,0,0,0,0,0,0,0.0,0.0,0.0,0.0
0,0,0,0,0,0,0,0,0.0,0.0,0.0,0.0
13780,26556,0,0,1,0,0,0,1.7225000000000001,3.3195,0.0,3.7397976549540752
0,0,0,0,0,0,0,0,0.0,0.0,0.0,0.0
0,0,0,0,13788,26556,0,0,0.0,0.0,0.0,0.0
0,0,0,0,0,0,0,0,0.0,0.0,0.0,0.0
0,0,0,0,0,0,0,0,0.0,0.0,0.0,0.0
13845,26556,0,0,1,0,0,0,1.730625,3.3195,0.0,3.743546866358828
0,0,0,0,0,0,0,0,0.0,0.0,0.0,0.0
0,0,0,0,13853,26556,0,0,0.0,0.0,0.0,0.0
0,0,0,0,0,0,0,0,0.0,0.0,0.0,0.0
0,0,0,0,0,0,0,0,0.0,0.0,0.0,0.0
13909,26556,0,0,1,0,0,0,1.738625,3.3195,0.0,3.747251945175958
0,0,0,0,0,0,0,0,0.0,0.0,0.0,0.0
0,0,0,0,13917,26556,0,0,0.0,0.0,0.0,0.0
0,0,0,0,0,0,0,0,0.0,0.0,0.0,0.0
0,0,0,0,0,0,0,0,0.0,0.0,0.0,0.0
13974,26556,0,0,1,0,0,0,1.74675,3.3195,0.0,3.751028633921634
0,0,0,0,0,0,0,0,0.0,0.0,0.0,0.0
0,0,0,0,13982,26556,0,0,0.0,0.0,0.0,0.0
0,0,0,0,0,0,0,0,0.0,0.0,0.0,0.0
0,0,0,0,0,0,0,0,0.0,0.0,0.0,0.0
14038,26556,0,0,1,0,0,0,1.75475,3.3195,0.0,3.754760686448605
0,0,0,0,0,0,0,0,0.0,0.0,0.0,0.0
0,0,0,0,14046,26556,0,0,0.0,0.0,0.0,0.0
0,0,0,0,0,0,0,0,0.0,0.0,0.0,0.0
0,0,0,0,0,0,0,0,0.0,0.0,0.0,0.0
14103,26556,0,0,1,0,0,0,1.762875,3.3195,0.0,3.758564688232065
0,0,0,0,0,0,0,0,0.0,0.0,0.0,0.0
0,0,0,0,14111,26556,0,0,0.0,0.0,0.0,0.0
0,0,0,0,0,0,0,0,0.0,0.0,0.0,0.0
0,0,0,0,0,0,0,0,0.0,0.0,0.0,0.0
14167,26556,0,0,1,0,0,0,1.770875,3.3195,0.0,3.762323552756328
0,0,0,0,0,0,0,0,0.0,0.0,0.0,0.0
0,0,0,0,14175,26556,0,0,0.0,0.0,0.0,0.0
0,0,0,0,0,0,0,0,0.0,0.0,0.0,0.0
0,0,0,0,0,0,0,0,0.0,0.0,0.0,0.0
14232,26556,0,0,1,0,0,0,1.7790000000000001,3.3195,0.0,3.766154703407708
0,0,0,0,0,0,0,0,0.0,0.0,0.0,0.0
0,0,0,0,14240,26556,0,0,0.0,0.0,0.0,0.0
0,0,0,0,0,0,0,0,0.0,0.0,0.0,0.0
0,0,0,0,0,0,0,0,0.0,0.0,0.0,0.0
14296,26556,0,0,1,0,0,0,1.7870000000000001,3.3195,0.0,3.7699402183589066
0,0,0,0,0,0,0,0,0.0,0.0,0.0,0.0
0,0,0,0,14304,26556,0,0,0.0,0.0,0.0,0.0
0,0,0,0,0,0,0,0,0.0,0.0,0.0,0.0
0,0,0,0,0,0,0,0,0.0,0.0,0.0,0.0
14361,26556,0,0,1,0,0,0,1.795125,3.3195,0.0,3.7737983538637834
0,0,0,0,0,0,0,0,0.0,0.0,0.0,0.0
0,0,0,0,14369,26556,0,0,0.0,0.0,0.0,0.0
0,0,0,0,0,0,0,0,0.0,0.0,0.0,0.0
0,0,0,0,0,0,0,0,0.0,0.0,0.0,0.0
14425,26556,0,0,1,0,0,0,1.803125,3.3195,0.0,3.7776103578353606
0,0,0,0,0,0,0,0,0.0,0.0,0.0,0.0
0,0,0,0,14433,26556,0,0,0.0,0.0,0.0,0.0
0,0,0,0,0,0,0,0,0.0,0.0,0.0,0.0
0,0,0,0,0,0,0,0,0.0,0.0,0.0,0.0
14490,26556,0,0,1,0,0,0,1.81125,3.3195,0.0,3.7814953143564782
0,0,0,0,0,0,0,0,0.0,0.0,0.0,0.0
0,0,0,0,14498,26556,0,0,0.0,0.0,0.0,0.0
0,0,0,0,0,0,0,0,0.0,0.0,0.0,0.0
0,0,0,0,0,0,0,0,0.0,0.0,0.0,0.0
14554,26556,0,0,1,0,0,0,1.81925,3.3195,0.0,3.785333646126851
0,0,0,0,0,0,0,0,0.0,0.0,0.0,0.0
0,0,0,0,14562,26556,0,0,0.0,0.0,0.0,0.0
0,0,0,0,0,0,0,0,0.0,0.0,0.0,0.0
0,0,0,0,0,0,0,0,0.0,0.0,0.0,0.0
14619,26556,0,0,1,0,0,0,1.827375,3.3195,0.0,3.789245260025405
0,0,0,0,0,0,0,0,0.0,0.0,0.0,0.0
0,0,0,0,14627,26556,0,0,0.0,0.0,0.0,0.0
0,0,0,0,0,0,0,0,0.0,0.0,0.0,0.0
0,0,0,0,0,0,0,0,0.0,0.0,0.0,0.0
14684,26556,0,0,1,0,0,0,1.8355000000000001,3.3195,0.0,3.7931702440043473
0,0,0,0,0,0,0,0,0.0,0.0,0.0,0.0
0,0,0,0,14691,26556,0,0,0.0,0.0,0.0,0.0
0,0,0,0,0,0,0,0,0.0,0.0,0.0,0.0
0,0,0,0,0,0,0,0,0.0,0.0,0.0,0.0
14748,26556,0,0,1,0,0,0,1.8435000000000001,3.3195,0.0,3.7970478664351863
0,0,0,0,0,0,0,0,0.0,0.0,0.0,0.0
0,0,0,0,14756,26556,0,0,0.0,0.0,0.0,0.0
0,0,0,0,0,0,0,0,0.0,0.0,0.0,0.0
0,0,0,0,0,0,0,0,0.0,0.0,0.0,0.0
14812,26556,0,0,1,0,0,0,1.8515000000000001,3.3195,0.0,3.800938370981566
0,0,0,0,0,0,0,0,0.0,0.0,0.0,0.0
0,0,0,0,14820,26556,0,0,0.0,0.0,0.0,0.0
0,0,0,0,0,0,0,0,0.0,0.0,0.0,0.0
0,0,0,0,0,0,0,0,0.0,0.0,0.0,0.0
14877,26556,0,0,1,0,0,0,1.859625,3.3195,0.0,3.804902809616167
0,0,0,0,0,0,0,0,0.0,0.0,0.0,0.0
0,0,0,0,14885,26556,0,0,0.0,0.0,0.0,0.0
0,0,0,0,0,0,0,0,0.0,0.0,0.0,0.0
0,0,0,0,0,0,0,0,0.0,0.0,0.0,0.0
14941,26556,0,0,1,0,0,0,1.867625,3.3195,0.0,3.808819159611677
0,0,0,0,0,0,0,0,0.0,0.0,0.0,0.0
0,0,0,0,14950,26556,0,0,0.0,0.0,0.0,0.0
0,0,0,0,0,0,0,0,0.0,0.0,0.0,0.0
0,0,0,0,0,0,0,0,0.0,0.0,0.0,0.0
15006,26556,0,0,1,0,0,0,1.87575,3.3195,0.0,3.812809766104257
0,0,0,0,0,0,0,0,0.0,0.0,0.0,0.0
0,0,0,0,15014,26556,0,0,0.0,0.0,0.0,0.0
0,0,0,0,0,0,0,0,0.0,0.0,0.0,0.0
0,0,0,0,0,0,0,0,0.0,0.0,0.0,0.0
15071,26556,0,0,1,0,0,0,1.883875,3.3195,0.0,3.8168134963114193
0,0,0,0,0,0,0,0,0.0,0.0,0.0,0.0
0,0,0,0,15079,26556,0,0,0.0,0.0,0.0,0.0
0,0,0,0,0,0,0,0,0.0,0.0,0.0,0.0
0,0,0,0,0,0,0,0,0.0,0.0,0.0,0.0
15135,26556,0,0,1,0,0,0,1.891875,3.3195,0.0,3.8207684129799073
0,0,0,0,0,0,0,0,0.0,0.0,0.0,0.0
0,0,0,0,15143,26556,0,0,0.0,0.0,0.0,0.0
0,0,0,0,0,0,0,0,0.0,0.0,0.0,0.0
0,0,0,0,0,0,0,0,0.0,0.0,0.0,0.0
15200,26556,0,0,1,0,0,0,1.9000000000000001,3.3195,0.0,3.8247980665650836
0,0,0,0,0,0,0,0,0.0,0.0,0.0,0.0
0,0,0,0,15208,26556,0,0,0.0,0.0,0.0,0.0
0,0,0,0,0,0,0,0,0.0,0.0,0.0,0.0
0,0,0,0,0,0,0,0,0.0,0.0,0.0,0.0
15264,26556,0,0,1,0,0,0,1.9080000000000001,3.3195,0.0,3.8287784279062165
0,0,0,0,0,0,0,0,0.0,0.0,0.0,0.0
0,0,0,0,15272,26556,0,0,0.0,0.0,0.0,0.0
0,0,0,0,0,0,0,0,0.0,0.0,0.0,0.0
0,0,0,0,0,0,0,0,0.0,0.0,0.0,0.0
15329,26556,0,0,1,0,0,0,1.916125,3.3195,0.0,3.832833842684157
0,0,0,0,0,0,0,0,0.0,0.0,0.0,0.0
0,0,0,0,15337,26556,0,0,0.0,0.0,0.0,0.0
0,0,0,0,0,0,0,0,0.0,0.0,0.0,0.0
0,0,0,0,0,0,0,0,0.0,0.0,0.0,0.0
15393,26556,0,0,1,0,0,0,1.924125,3.3195,0.0,3.836839489166181
0,0,0,0,0,0,0,0,0.0,0.0,0.0,0.0
0,0,0,0,15401,26556,0,0,0.0,0.0,0.0,0.0
0,0,0,0,0,0,0,0,0.0,0.0,0.0,0.0
0,0,0,0,0,0,0,0,0.0,0.0,0.0,0.0
15458,26556,0,0,1,0,0,0,1.93225,3.3195,0.0,3.8409205032778275
0,0,0,0,0,0,0,0,0.0,0.0,0.0,0.0
0,0,0,0,15466,26556,0,0,0.0,0.0,0.0,0.0
0,0,0,0,0,0,0,0,0.0,0.0,0.0,0.0
0,0,0,0,0,0,0,0,0.0,0.0,0.0,0.0
15522,26556,0,0,1,0,0,0,1.94025,3.3195,0.0,3.8449512756990822
0,0,0,0,0,0,0,0,0.0,0.0,0.0,0.0
0,0,0,0,15530,26556,0,0,0.0,0.0,0.0,0.0
0,0,0,0,0,0,0,0,0.0,0.0,0.0,0.0
0,0,0,0,0,0,0,0,0.0,0.0,0.0,0.0
15587,26556,0,0,1,0,0,0,1.948375,3.3195,0.0,3.8490577276295816
0,0,0,0,0,0,0,0,0.0,0.0,0.0,0.0
0,0,0,0,15595,26556,0,0,0.0,0.0,0.0,0.0
0,0,0,0,0,0,0,0,0.0,0.0,0.0,0.0
0,0,0,0,0,0,0,0,0.0,0.0,0.0,0.0
15651,26556,0,0,1,0,0,0,1.956375,3.3195,0.0,3.853113467136025
0,0,0,0,0,0,0,0,0.0,0.0,0.0,0.0
0,0,0,0,15659,26556,0,0,0.0,0.0,0.0,0.0
0,0,0,0,0,0,0,0,0.0,0.0,0.0,0.0
0,0,0,0,0,0,0,0,0.0,0.0,0.0,0.0
15716,26556,0,0,1,0,0,0,1.9645000000000001,3.3195,0.0,3.857245195732312
0,0,0,0,0,0,0,0,0.0,0.0,0.0,0.0
0,0,0,0,15724,26556,0,0,0.0,0.0,0.0,0.0
0,0,0,0,0,0,0,0,0.0,0.0,0.0,0.0
0,0,0,0,0,0,0,0,0.0,0.0,0.0,0.0
15780,26556,0,0,1,0,0,0,1.9725000000000001,3.3195,0.0,3.8613257438346227
0,0,0,0,0,0,0,0,0.0,0.0,0.0,0.0
0,0,0,0,15788,26556,0,0,0.0,0.0,0.0,0.0
0,0,0,0,0,0,0,0,0.0,0.0,0.0,0.0
0,0,0,0,0,0,0,0,0.0,0.0,0.0,0.0
15845,26556,0,0,1,0,0,0,1.980625,3.3195,0.0,3.8654825883225756
0,0,0,0,0,0,0,0,0.0,0.0,0.0,0.0
0,0,0,0,15853,26556,0,0,0.0,0.0,0.0,0.0
0,0,0,0,0,0,0,0,0.0,0.0,0.0,0.0
0,0,0,0,0,0,0,0,0.0,0.0,0.0,0.0
15909,26556,0,0,1,0,0,0,1.988625,3.3195,0.0,3.8695877869128386
0,0,0,0,0,0,0,0,0.0,0.0,0.0,0.0
0,0,0,0,15917,26556,0,0,0.0,0.0,0.0,0.0
0,0,0,0,0,0,0,0,0.0,0.0,0.0,0.0
0,0,0,0,0,0,0,0,0.0,0.0,0.0,0.0
15974,26556,0,0,1,0,0,0,1.99675,3.3195,0.0,3.8737695869140176
0,0,0,0,0,0,0,0,0.0,0.0,0.0,0.0
0,0,0,0,15982,26556,0,0,0.0,0.0,0.0,0.0
0,0,0,0,0,0,0,0,0.0,0.0,0.0,0.0
0,0,0,0,0,0,0,0,0.0,0.0,0.0,0.0
16038,26556,0,0,1,0,0,0,2.00475,3.3195,0.0,3.8778992782819928
0,0,0,0,0,0,0,0,0.0,0.0,0.0,0.0
0,0,0,0,16047,26556,0,0,0.0,0.0,0.0,0.0
0,0,0,0,0,0,0,0,0.0,0.0,0.0,0.0
0,0,0,0,0,0,0,0,0.0,0.0,0.0,0.0
16103,26556,0,0,1,0,0,0,2.012875,3.3195,0.0,3.8821058738299503
0,0,0,0,0,0,0,0,0.0,0.0,0.0,0.0
0,0,0,0,16111,26556,0,0,0.0,0.0,0.0,0.0
0,0,0,0,0,0,0,0,0.0,0.0,0.0,0.0
0,0,0,0,0,0,0,0,0.0,0.0,0.0,0.0
16168,26556,0,0,1,0,0,0,2.021,3.3195,0.0,3.88632490278412
0,0,0,0,0,0,0,0,0.0,0.0,0.0,0.0
0,0,0,0,16176,26556,0,0,0.0,0.0,0.0,0.0
0,0,0,0,0,0,0,0,0.0,0.0,0.0,0.0
0,0,0,0,0,0,0,0,0.0,0.0,0.0,0.0
16232,26556,0,0,1,0,0,0,2.029,3.3195,0.0,3.8904911322351063
0,0,0,0,0,0,0,0,0.0,0.0,0.0,0.0
0,0,0,0,16240,26556,0,0,0.0,0.0,0.0,0.0
0,0,0,0,0,0,0,0,0.0,0.0,0.0,0.0
0,0,0,0,0,0,0,0,0.0,0.0,0.0,0.0
16297,26556,0,0,1,0,0,0,2.037125,3.3195,0.0,3.894734716976883
0,0,0,0,0,0,0,0,0.0,0.0,0.0,0.0
0,0,0,0,16305,26556,0,0,0.0,0.0,0.0,0.0
0,0,0,0,0,0,0,0,0.0,0.0,0.0,0.0
0,0,0,0,0,0,0,0,0.0,0.0,0.0,0.0
16361,26556,0,0,1,0,0,0,2.045125,3.3195,0.0,3.898925046166571
0,0,0,0,0,0,0,0,0.0,0.0,0.0,0.0
0,0,0,0,16369,26556,0,0,0.0,0.0,0.0,0.0
0,0,0,0,0,0,0,0,0.0,0.0,0.0,0.0
0,0,0,0,0,0,0,0,0.0,0.0,0.0,0.0
16426,26556,0,0,1,0,0,0,2.0532500000000002,3.3195,0.0,3.9031930278299076
0,0,0,0,0,0,0,0,0.0,0.0,0.0,0.0
0,0,0,0,16434,26556,0,0,0.0,0.0,0.0,0.0
0,0,0,0,0,0,0,0,0.0,0.0,0.0,0.0
0,0,0,0,0,0,0,0,0.0,0.0,0.0,0.0
16490,26556,0,0,1,0,0,0,2.0612500000000002,3.3195,0.0,3.907407300563892
0,0,0,0,0,0,0,0,0.0,0.0,0.0,0.0
0,0,0,0,16498,26556,0,0,0.0,0.0,0.0,0.0
0,0,0,0,0,0,0,0,0.0,0.0,0.0,0.0
0,0,0,0,0,0,0,0,0.0,0.0,0.0,0.0
16555,26556,0,0,1,0,0,0,2.069375,3.3195,0.0,3.911699520748622
0,0,0,0,0,0,0,0,0.0,0.0,0.0,0.0
0,0,0,0,16563,26556,0,0,0.0,0.0,0.0,0.0
0,0,0,0,0,0,0,0,0.0,0.0,0.0,0.0
0,0,0,0,0,0,0,0,0.0,0.0,0.0,0.0
16619,26556,0,0,1,0,0,0,2.077375,3.3195,0.0,3.915937581298379
0,0,0,0,0,0,0,0,0.0,0.0,0.0,0.0
0,0,0,0,16627,26556,0,0,0.0,0.0,0.0,0.0
0,0,0,0,0,0,0,0,0.0,0.0,0.0,0.0
0,0,0,0,0,0,0,0,0.0,0.0,0.0,0.0
16684,26556,0,0,1,0,0,0,2.0855,3.3195,0.0,3.9202538820846797
0,0,0,0,0,0,0,0,0.0,0.0,0.0,0.0
0,0,0,0,16692,26556,0,0,0.0,0.0,0.0,0.0
0,0,0,0,0,0,0,0,0.0,0.0,0.0,0.0
0,0,0,0,0,0,0,0,0.0,0.0,0.0,0.0
16749,26556,0,0,1,0,0,0,2.093625,3.3195,0.0,3.924582256830018
0,0,0,0,0,0,0,0,0.0,0.0,0.0,0.0
0,0,0,0,16757,26556,0,0,0.0,0.0,0.0,0.0
0,0,0,0,0,0,0,0,0.0,0.0,0.0,0.0
0,0,0,0,0,0,0,0,0.0,0.0,0.0,0.0
16813,26556,0,0,1,0,0,0,2.101625,3.3195,0.0,3.928855799164052
0,0,0,0,0,0,0,0,0.0,0.0,0.0,0.0
0,0,0,0,16821,26556,0,0,0.0,0.0,0.0,0.0
0,0,0,0,0,0,0,0,0.0,0.0,0.0,0.0
0,0,0,0,0,0,0,0,0.0,0.0,0.0,0.0
16878,26556,0,0,1,0,0,0,2.10975,3.3195,0.0,3.9332080179543008
0,0,0,0,0,0,0,0,0.0,0.0,0.0,0.0
0,0,0,0,16886,26556,0,0,0.0,0.0,0.0,0.0
0,0,0,0,0,0,0,0,0.0,0.0,0.0,0.0
0,0,0,0,0,0,0,0,0.0,0.0,0.0,0.0
16942,26556,0,0,1,0,0,0,2.11775,3.3195,0.0,3.937504960314336
0,0,0,0,0,0,0,0,0.0,0.0,0.0,0.0
0,0,0,0,16950,26556,0,0,0.0,0.0,0.0,0.0
0,0,0,0,0,0,0,0,0.0,0.0,0.0,0.0
0,0,0,0,0,0,0,0,0.0,0.0,0.0,0.0
17007,26556,0,0,1,0,0,0,2.125875,3.3195,0.0,3.941880866493177
0,0,0,0,0,0,0,0,0.0,0.0,0.0,0.0
0,0,0,0,17015,26556,0,0,0.0,0.0,0.0,0.0
0,0,0,0,0,0,0,0,0.0,0.0,0.0,0.0
0,0,0,0,0,0,0,0,0.0,0.0,0.0,0.0
17071,26556,0,0,1,0,0,0,2.133875,3.3195,0.0,3.9462010548912736
0,0,0,0,0,0,0,0,0.0,0.0,0.0,0.0
0,0,0,0,17079,26556,0,0,0.0,0.0,0.0,0.0
0,0,0,0,0,0,0,0,0.0,0.0,0.0,0.0
0,0,0,0,0,0,0,0,0.0,0.0,0.0,0.0
17136,26556,0,0,1,0,0,0,2.142,3.3195,0.0,3.9506004923302482
0,0,0,0,0,0,0,0,0.0,0.0,0.0,0.0
0,0,0,0,17144,26556,0,0,0.0,0.0,0.0,0.0
0,0,0,0,0,0,0,0,0.0,0.0,0.0,0.0
0,0,0,0,0,0,0,0,0.0,0.0,0.0,0.0
17200,26556,0,0,1,0,0,0,2.15,3.3195,0.0,3.9549437733044956
0,0,0,0,0,0,0,0,0.0,0.0,0.0,0.0
0,0,0,0,17208,26556,0,0,0.0,0.0,0.0,0.0
0,0,0,0,0,0,0,0,0.0,0.0,0.0,0.0
0,0,0,0,0,0,0,0,0.0,0.0,0.0,0.0
17265,26556,0,0,1,0,0,0,2.158125,3.3195,0.0,3.959366586415686
0,0,0,0,0,0,0,0,0.0,0.0,0.0,0.0
0,0,0,0,17273,26556,0,0,0.0,0.0,0.0,0.0
0,0,0,0,0,0,0,0,0.0,0.0,0.0,0.0
0,0,0,0,0,0,0,0,0.0,0.0,0.0,0.0
17329,26556,0,0,1,0,0,0,2.166125,3.3195,0.0,3.963732807042498
0,0,0,0,0,0,0,0,0.0,0.0,0.0,0.0
0,0,0,0,17337,26556,0,0,0.0,0.0,0.0,0.0
0,0,0,0,0,0,0,0,0.0,0.0,0.0,0.0
0,0,0,0,0,0,0,0,0.0,0.0,0.0,0.0
17394,26556,0,0,1,0,0,0,2.1742500000000002,3.3195,0.0,3.968178840790823
0,0,0,0,0,0,0,0,0.0,0.0,0.0,0.0
0,0,0,0,17402,26556,0,0,0.0,0.0,0.0,0.0
0,0,0,0,0,0,0,0,0.0,0.0,0.0,0.0
0,0,0,0,0,0,0,0,0.0,0.0,0.0,0.0
17458,26556,0,0,1,0,0,0,2.1822500000000002,3.3195,0.0,3.9725678486968605
0,0,0,0,0,0,0,0,0.0,0.0,0.0,0.0
0,0,0,0,17466,26556,0,0,0.0,0.0,0.0,0.0
0,0,0,0,0,0,0,0,0.0,0.0,0.0,0.0
0,0,0,0,0,0,0,0,0.0,0.0,0.0,0.0
17523,26556,0,0,1,0,0,0,2.190375,3.3195,0.0,3.977036948611994
0,0,0,0,0,0,0,0,0.0,0.0,0.0,0.0
0,0,0,0,17531,26556,0,0,0.0,0.0,0.0,0.0
0,0,0,0,0,0,0,0,0.0,0.0,0.0,0.0
0,0,0,0,0,0,0,0,0.0,0.0,0.0,0.0
17587,26556,0,0,1,0,0,0,2.198375,3.3195,0.0,3.981448591985711
0,0,0,0,0,0,0,0,0.0,0.0,0.0,0.0
0,0,0,0,17595,26556,0,0,0.0,0.0,0.0,0.0
0,0,0,0,0,0,0,0,0.0,0.0,0.0,0.0
0,0,0,0,0,0,0,0,0.0,0.0,0.0,0.0
17652,26556,0,0,1,0,0,0,2.2065,3.3195,0.0,3.9859406041736247
0,0,0,0,0,0,0,0,0.0,0.0,0.0,0.0
0,0,0,0,17660,26556,0,0,0.0,0.0,0.0,0.0
0,0,0,0,0,0,0,0,0.0,0.0,0.0,0.0
0,0,0,0,0,0,0,0,0.0,0.0,0.0,0.0
17717,26556,0,0,1,0,0,0,2.214625,3.3195,0.0,3.990444103182627
0,0,0,0,0,0,0,0,0.0,0.0,0.0,0.0
0,0,0,0,17725,26556,0,0,0.0,0.0,0.0,0.0
0,0,0,0,0,0,0,0,0.0,0.0,0.0,0.0
0,0,0,0,0,0,0,0,0.0,0.0,0.0,0.0
17781,26556,0,0,1,0,0,0,2.222625,3.3195,0.0,3.994889502930588
0,0,0,0,0,0,0,0,0.0,0.0,0.0,0.0
0,0,0,0,17789,26556,0,0,0.0,0.0,0.0,0.0
0,0,0,0,0,0,0,0,0.0,0.0,0.0,0.0
0,0,0,0,0,0,0,0,0.0,0.0,0.0,0.0
17846,26556,0,0,1,0,0,0,2.23075,3.3195,0.0,3.9994156838843344
0,0,0,0,0,0,0,0,0.0,0.0,0.0,0.0
0,0,0,0,17854,26556,0,0,0.0,0.0,0.0,0.0
0,0,0,0,0,0,0,0,0.0,0.0,0.0,0.0
0,0,0,0,0,0,0,0,0.0,0.0,0.0,0.0
17910,26556,0,0,1,0,0,0,2.23875,3.3195,0.0,4.00388334151983
0,0,0,0,0,0,0,0,0.0,0.0,0.0,0.0
0,0,0,0,17918,26556,0,0,0.0,0.0,0.0,0.0
0,0,0,0,0,0,0,0,0.0,0.0,0.0,0.0
0,0,0,0,0,0,0,0,0.0,0.0,0.0,0.0
17975,26556,0,0,1,0,0,0,2.246875,3.3195,0.0,4.008432052015476
0,0,0,0,0,0,0,0,0.0,0.0,0.0,0.0
0,0,0,0,17983,26556,0,0,0.0,0.0,0.0,0.0
0,0,0,0,0,0,0,0,0.0,0.0,0.0,0.0
0,0,0,0,0,0,0,0,0.0,0.0,0.0,0.0
18039,26556,0,0,1,0,0,0,2.254875,3.3195,0.0,4.012921817781279
0,0,0,0,0,0,0,0,0.0,0.0,0.0,0.0
0,0,0,0,18047,26556,0,0,0.0,0.0,0.0,0.0
0,0,0,0,0,0,0,0,0.0,0.0,0.0,0.0
0,0,0,0,0,0,0,0,0.0,0.0,0.0,0.0
18104,26556,0,0,1,0,0,0,2.263,3.3195,0.0,4.017492906029829
0,0,0,0,0,0,0,0,0.0,0.0,0.0,0.0
0,0,0,0,18112,26556,0,0,0.0,0.0,0.0,0.0
0,0,0,0,0,0,0,0,0.0,0.0,0.0,0.0
0,0,0,0,0,0,0,0,0.0,0.0,0.0,0.0
18168,26556,0,0,1,0,0,0,2.271,3.3195,0.0,4.02200463077804
0,0,0,0,0,0,0,0,0.0,0.0,0.0,0.0
0,0,0,0,18176,26556,0,0,0.0,0.0,0.0,0.0
0,0,0,0,0,0,0,0,0.0,0.0,0.0,0.0
0,0,0,0,0,0,0,0,0.0,0.0,0.0,0.0
18233,26556,0,0,1,0,0,0,2.279125,3.3195,0.0,4.026597945614262
0,0,0,0,0,0,0,0,0.0,0.0,0.0,0.0
0,0,0,0,18241,26556,0,0,0.0,0.0,0.0,0.0
0,0,0,0,0,0,0,0,0.0,0.0,0.0,0.0
0,0,0,0,0,0,0,0,0.0,0.0,0.0,0.0
18297,26556,0,0,1,0,0,0,2.287125,3.3195,0.0,4.031131480815901
0,0,0,0,0,0,0,0,0.0,0.0,0.0,0.0
0,0,0,0,18305,26556,0,0,0.0,0.0,0.0,0.0
0,0,0,0,0,0,0,0,0.0,0.0,0.0,0.0
0,0,0,0,0,0,0,0,0.0,0.0,0.0,0.0
18362,26556,0,0,1,0,0,0,2.2952500000000002,3.3195,0.0,4.035746871707888
0,0,0,0,0,0,0,0,0.0,0.0,0.0,0.0
0,0,0,0,18370,26556,0,0,0.0,0.0,0.0,0.0
0,0,0,0,0,0,0,0,0.0,0.0,0.0,0.0
0,0,0,0,0,0,0,0,0.0,0.0,0.0,0.0
18426,26556,0,0,1,0,0,0,2.3032500000000002,3.3195,0.0,4.040302069462133
0,0,0,0,0,0,0,0,0.0,0.0,0.0,0.0
0,0,0,0,18434,26556,0,0,0.0,0.0,0.0,0.0
0,0,0,0,0,0,0,0,0.0,0.0,0.0,0.0
0,0,0,0,0,0,0,0,0.0,0.0,0.0,0.0
18491,26556,0,0,1,0,0,0,2.311375,3.3195,0.0,4.04493938652052
0,0,0,0,0,0,0,0,0.0,0.0,0.0,0.0
0,0,0,0,18499,26556,0,0,0.0,0.0,0.0,0.0
0,0,0,0,0,0,0,0,0.0,0.0,0.0,0.0
0,0,0,0,0,0,0,0,0.0,0.0,0.0,0.0
18555,26556,0,0,1,0,0,0,2.319375,3.3195,0.0,4.0495160995636255
0,0,0,0,0,0,0,0,0.0,0.0,0.0,0.0
0,0,0,0,18564,26556,0,0,0.0,0.0,0.0,0.0
0,0,0,0,0,0,0,0,0.0,0.0,0.0,0.0
0,0,0,0,0,0,0,0,0.0,0.0,0.0,0.0
18620,26556,0,0,1,0,0,0,2.3275,3.3195,0.0,4.054175193550471
0,0,0,0,0,0,0,0,0.0,0.0,0.0,0.0
0,0,0,0,18628,26556,0,0,0.0,0.0,0.0,0.0
0,0,0,0,0,0,0,0,0.0,0.0,0.0,0.0
0,0,0,0,0,0,0,0,0.0,0.0,0.0,0.0
18684,26556,0,0,1,0,0,0,2.3355,3.3195,0.0,4.058773275264338
0,0,0,0,0,0,0,0,0.0,0.0,0.0,0.0
0,0,0,0,18693,26556,0,0,0.0,0.0,0.0,0.0
0,0,0,0,0,0,0,0,0.0,0.0,0.0,0.0
0,0,0,0,0,0,0,0,0.0,0.0,0.0,0.0
18749,26556,0,0,1,0,0,0,2.343625,3.3195,0.0,4.0634539976016715
0,0,0,0,0,0,0,0,0.0,0.0,0.0,0.0
0,0,0,0,18757,26556,0,0,0.0,0.0,0.0,0.0
0,0,0,0,0,0,0,0,0.0,0.0,0.0,0.0
0,0,0,0,0,0,0,0,0.0,0.0,0.0,0.0
18814,26556,0,0,1,0,0,0,2.35175,3.3195,0.0,4.068145561862308
0,0,0,0,0,0,0,0,0.0,0.0,0.0,0.0
0,0,0,0,18822,26556,0,0,0.0,0.0,0.0,0.0
0,0,0,0,0,0,0,0,0.0,0.0,0.0,0.0
0,0,0,0,0,0,0,0,0.0,0.0,0.0,0.0
18878,26556,0,0,1,0,0,0,2.35975,3.3195,0.0,4.072775504800136
0,0,0,0,0,0,0,0,0.0,0.0,0.0,0.0
0,0,0,0,18886,26556,0,0,0.0,0.0,0.0,0.0
0,0,0,0,0,0,0,0,0.0,0.0,0.0,0.0
0,0,0,0,0,0,0,0,0.0,0.0,0.0,0.0
18943,26556,0,0,1,0,0,0,2.367875,3.3195,0.0,4.077488475228962
0,0,0,0,0,0,0,0,0.0,0.0,0.0,0.0
0,0,0,0,18951,26556,0,0,0.0,0.0,0.0,0.0
0,0,0,0,0,0,0,0,0.0,0.0,0.0,0.0
0,0,0,0,0,0,0,0,0.0,0.0,0.0,0.0
19007,26556,0,0,1,0,0,0,2.375875,3.3195,0.0,4.082139422609791
0,0,0,0,0,0,0,0,0.0,0.0,0.0,0.0
0,0,0,0,19015,26556,0,0,0.0,0.0,0.0,0.0
0,0,0,0,0,0,0,0,0.0,0.0,0.0,0.0
0,0,0,0,0,0,0,0,0.0,0.0,0.0,0.0
19072,26556,0,0,1,0,0,0,2.384,3.3195,0.0,4.086873652316646
0,0,0,0,0,0,0,0,0.0,0.0,0.0,0.0
0,0,0,0,19080,26556,0,0,0.0,0.0,0.0,0.0
0,0,0,0,0,0,0,0,0.0,0.0,0.0,0.0
0,0,0,0,0,0,0,0,0.0,0.0,0.0,0.0
19136,26556,0,0,1,0,0,0,2.392,3.3195,0.0,4.0915454598476595
0,0,0,0,0,0,0,0,0.0,0.0,0.0,0.0
0,0,0,0,19144,26556,0,0,0.0,0.0,0.0,0.0
0,0,0,0,0,0,0,0,0.0,0.0,0.0,0.0
0,0,0,0,0,0,0,0,0.0,0.0,0.0,0.0
19201,26556,0,0,1,0,0,0,2.400125,3.3195,0.0,4.096300802629734
0,0,0,0,0,0,0,0,0.0,0.0,0.0,0.0
0,0,0,0,19209,26556,0,0,0.0,0.0,0.0,0.0
0,0,0,0,0,0,0,0,0.0,0.0,0.0,0.0
0,0,0,0,0,0,0,0,0.0,0.0,0.0,0.0
19265,26556,0,0,1,0,0,0,2.408125,3.3195,0.0,4.100993326698423
0,0,0,0,0,0,0,0,0.0,0.0,0.0,0.0
0,0,0,0,19273,26556,0,0,0.0,0.0,0.0,0.0
0,0,0,0,0,0,0,0,0.0,0.0,0.0,0.0
0,0,0,0,0,0,0,0,0.0,0.0,0.0,0.0
19330,26556,0,0,1,0,0,0,2.4162500000000002,3.3195,0.0,4.105769637047358
0,0,0,0,0,0,0,0,0.0,0.0,0.0,0.0
0,0,0,0,19338,26556,0,0,0.0,0.0,0.0,0.0
0,0,0,0,0,0,0,0,0.0,0.0,0.0,0.0
0,0,0,0,0,0,0,0,0.0,0.0,0.0,0.0
19394,26556,0,0,1,0,0,0,2.4242500000000002,3.3195,0.0,4.110482734728368
0,0,0,0,0,0,0,0,0.0,0.0,0.0,0.0
0,0,0,0,19402,26556,0,0,0.0,0.0,0.0,0.0
0,0,0,0,0,0,0,0,0.0,0.0,0.0,0.0
0,0,0,0,0,0,0,0,0.0,0.0,0.0,0.0
19459,26556,0,0,1,0,0,0,2.432375,3.3195,0.0,4.115279867837058
0,0,0,0,0,0,0,0,0.0,0.0,0.0,0.0
0,0,0,0,19467,26556,0,0,0.0,0.0,0.0,0.0
0,0,0,0,0,0,0,0,0.0,0.0,0.0,0.0
0,0,0,0,0,0,0,0,0.0,0.0,0.0,0.0
19523,26556,0,0,1,0,0,0,2.440375,3.3195,0.0,4.120013396898728
0,0,0,0,0,0,0,0,0.0,0.0,0.0,0.0
0,0,0,0,19531,26556,0,0,0.0,0.0,0.0,0.0
0,0,0,0,0,0,0,0,0.0,0.0,0.0,0.0
0,0,0,0,0,0,0,0,0.0,0.0,0.0,0.0
19588,26556,0,0,1,0,0,0,2.4485,3.3195,0.0,4.124831208667817
0,0,0,0,0,0,0,0,0.0,0.0,0.0,0.0
0,0,0,0,19596,26556,0,0,0.0,0.0,0.0,0.0
0,0,0,0,0,0,0,0,0.0,0.0,0.0,0.0
0,0,0,0,0,0,0,0,0.0,0.0,0.0,0.0
19652,26556,0,0,1,0,0,0,2.4565,3.3195,0.0,4.129585027578437
0,0,0,0,0,0,0,0,0.0,0.0,0.0,0.0
0,0,0,0,19660,26556,0,0,0.0,0.0,0.0,0.0
1,0,0,0,0,0,0,0,0.000125,0.0,0.0,0.000125
0,0,0,0,0,0,0,0,0.0,0.0,0.0,0.0
20581,26556,0,0,0,0,0,0,2.572625,3.3195,0.0,4.1996999464991545
0,0,0,0,0,0,0,0,0.0,0.0,0.0,0.0
0,0,0,0,20585,26556,0,0,0.0,0.0,0.0,0.0
0,0,0,0,0,0,0,0,0.0,0.0,0.0,0.0
0,0,0,0,0,0,0,0,0.0,0.0,0.0,0.0
21504,26556,0,0,1,0,0,0,2.688,3.3195,0.0,4.271349230629592
0,0,0,0,0,0,0,0,0.0,0.0,0.0,0.0
0,0,0,0,21510,26556,0,0,0.0,0.0,0.0,0.0
0,0,0,0,0,0,0,0,0.0,0.0,0.0,0.0
0,0,0,0,0,0,0,0,0.0,0.0,0.0,0.0
22437,26556,0,0,1,0,0,0,2.804625,3.3195,0.0,4.345687706292871
0,0,0,0,0,0,0,0,0.0,0.0,0.0,0.0
0,0,0,0,22443,26556,0,0,0.0,0.0,0.0,0.0
1,0,0,0,0,0,0,0,0.000125,0.0,0.0,0.000125
0,0,0,0,0,0,0,0,0.0,0.0,0.0,0.0
23458,26556,0,0,0,0,0,0,2.9322500000000002,3.3195,0.0,4.429127488851501
0,0,0,0,0,0,0,0,0.0,0.0,0.0,0.0
0,0,0,0,23466,26556,0,0,0.0,0.0,0.0,0.0
1,0,0,0,0,0,0,0,0.000125,0.0,0.0,0.000125
0,0,0,0,0,0,0,0,0.0,0.0,0.0,0.0
24380,26556,0,0,0,0,0,0,3.0475,3.3195,0.0,4.506255263519811
0,0,0,0,0,0,0,0,0.0,0.0,0.0,0.0
0,0,0,0,24382,26556,0,0,0.0,0.0,0.0,0.0
0,0,0,0,0,0,0,0,0.0,0.0,0.0,0.0
0,0,0,0,0,0,0,0,0.0,0.0,0.0,0.0
25302,26556,0,0,1,0,0,0,3.16275,3.3195,0.0,4.584982858473955
0,0,0,0,0,0,0,0,0.0,0.0,0.0,0.0
0,0,0,0,25307,26556,0,0,0.0,0.0,0.0,0.0
1,0,0,0,0,0,0,0,0.000125,0.0,0.0,0.000125
0,0,0,0,0,0,0,0,0.0,0.0,0.0,0.0
26224,26556,0,0,0,0,0,0,3.278,3.3195,0.0,4.665229281610927
0,0,0,0,0,0,0,0,0.0,0.0,0.0,0.0
0,0,0,0,26231,26556,0,0,0.0,0.0,0.0,0.0
1,0,0,0,0,0,0,0,0.000125,0.0,0.0,0.000125
0,0,0,0,0,0,0,0,0.0,0.0,0.0,0.0
26934,26556,0,0,0,0,0,0,3.36675,3.3195,0.0,4.7280107669610905
0,0,0,0,0,0,0,0,0.0,0.0,0.0,0.0
0,0,0,0,26935,26556,0,0,0.0,0.0,0.0,0.0
0,0,0,0,0,0,0,0,0.0,0.0,0.0,0.0
0,0,0,0,0,0,0,0,0.0,0.0,0.0,0.0
27856,26556,0,0,1,0,0,0,3.482,3.3195,0.0,4.810759217628752
0,0,0,0,0,0,0,0,0.0,0.0,0.0,0.0
0,0,0,0,27859,26556,0,0,0.0,0.0,0.0,0.0
1,0,0,0,0,0,0,0,0.000125,0.0,0.0,0.000125
0,0,0,0,0,0,0,0,0.0,0.0,0.0,0.0
28778,26556,0,0,0,0,0,0,3.5972500000000003,3.3195,0.0,4.894822551686629
0,0,0,0,0,0,0,0,0.0,0.0,0.0,0.0
0,0,0,0,28784,26556,0,0,0.0,0.0,0.0,0.0
0,0,0,0,0,0,0,0,0.0,0.0,0.0,0.0
0,0,0,0,0,0,0,0,0.0,0.0,0.0,0.0
29701,26556,0,0,1,0,0,0,3.712625,3.3195,0.0,4.980227368366328
0,0,0,0,0,0,0,0,0.0,0.0,0.0,0.0
0,0,0,0,29709,26556,0,0,0.0,0.0,0.0,0.0
0,0,0,0,0,0,0,0,0.0,0.0,0.0,0.0
0,0,0,0,0,0,0,0,0.0,0.0,0.0,0.0
30623,26556,0,0,1,0,0,0,3.827875,3.3195,0.0,5.066725497362671
0,0,0,0,0,0,0,0,0.0,0.0,0.0,0.0
0,0,0,0,30625,26556,0,0,0.0,0.0,0.0,0.0
1,0,0,0,0,0,0,0,0.000125,0.0,0.0,0.000125
0,0,0,0,0,0,0,0,0.0,0.0,0.0,0.0
31576,26556,0,0,0,0,0,0,3.947,3.3195,0.0,5.157314150795935
0,0,0,0,0,0,0,0,0.0,0.0,0.0,0.0
0,0,0,0,31580,26556,0,0,0.0,0.0,0.0,0.0
0,0,0,0,0,0,0,0,0.0,0.0,0.0,0.0
0,0,0,0,0,0,0,0,0.0,0.0,0.0,0.0
32498,26556,0,0,1,0,0,0,4.06225,3.3195,0.0,5.246041871020474
0,0,0,0,0,0,0,0,0.0,0.0,0.0,0.0
0,0,0,0,32504,26556,0,0,0.0,0.0,0.0,0.0
0,0,0,0,0,0,0,0,0.0,0.0,0.0,0.0
0,0,0,0,0,0,0,0,0.0,0.0,0.0,0.0
-32116,26556,0,0,1,0,0,0,-4.0145,3.3195,0.0,5.2091544899340425
0,0,0,0,0,0,0,0,0.0,0.0,0.0,0.0
0,0,0,0,-32116,26556,0,0,0.0,0.0,0.0,0.0
1,0,0,0,0,0,0,0,0.000125,0.0,0.0,0.000125
0,0,0,0,0,0,0,0,0.0,0.0,0.0,0.0
-31194,26556,0,0,0,0,0,0,-3.89925,3.3195,0.0,5.120862311417873
0,0,0,0,0,0,0,0,0.0,0.0,0.0,0.0
0,0,0,0,-31191,26556,0,0,0.0,0.0,0.0,0.0
0,0,0,0,0,0,0,0,0.0,0.0,0.0,0.0
0,0,0,0,0,0,0,0,0.0,0.0,0.0,0.0
-30140,26556,0,0,1,0,0,0,-3.7675,3.3195,0.0,5.021268415450423
0,0,0,0,0,0,0,0,0.0,0.0,0.0,0.0
0,0,0,0,-30135,26556,0,0,0.0,0.0,0.0,0.0
1,0,0,0,0,0,0,0,0.000125,0.0,0.0,0.000125
0,0,0,0,0,0,0,0,0.0,0.0,0.0,0.0
-29218,26556,0,0,0,0,0,0,-3.65225,3.3195,0.0,4.93538350206952
0,0,0,0,0,0,0,0,0.0,0.0,0.0,0.0
0,0,0,0,-29211,26556,0,0,0.0,0.0,0.0,0.0
1,0,0,0,0,0,0,0,0.000125,0.0,0.0,0.000125
0,0,0,0,0,0,0,0,0.0,0.0,0.0,0.0
-28296,26556,0,0,0,0,0,0,-3.537,3.3195,0.0,4.850716364620797
0,0,0,0,0,0,0,0,0.0,0.0,0.0,0.0
0,0,0,0,-28294,26556,0,0,0.0,0.0,0.0,0.0
0,0,0,0,0,0,0,0,0.0,0.0,0.0,0.0
0,0,0,0,0,0,0,0,0.0,0.0,0.0,0.0
-27374,26556,0,0,1,0,0,0,-3.4217500000000003,3.3195,0.0,4.76733188612876
0,0,0,0,0,0,0,0,0.0,0.0,0.0,0.0
0,0,0,0,-27369,26556,0,0,0.0,0.0,0.0,0.0
1,0,0,0,0,0,0,0,0.000125,0.0,0.0,0.000125
0,0,0,0,0,0,0,0,0.0,0.0,0.0,0.0
-26451,26556,0,0,0,0,0,0,-3.306375,3.3195,0.0,4.685210335793368
0,0,0,0,0,0,0,0,0.0,0.0,0.0,0.0
0,0,0,0,-26444,26556,0,0,0.0,0.0,0.0,0.0
0,0,0,0,0,0,0,0,0.0,0.0,0.0,0.0
0,0,0,0,0,0,0,0,0.0,0.0,0.0,0.0
-25528,26556,0,0,1,0,0,0,-3.1910000000000003,3.3195,0.0,4.604515311083242
0,0,0,0,0,0,0,0,0.0,0.0,0.0,0.0
0,0,0,0,-25520,26556,0,0,0.0,0.0,0.0,0.0
0,0,0,0,0,0,0,0,0.0,0.0,0.0,0.0
0,0,0,0,0,0,0,0,0.0,0.0,0.0,0.0
-24605,26556,0,0,1,0,0,0,-3.075625,3.3195,0.0,4.5253231255486055
0,0,0,0,0,0,0,0,0.0,0.0,0.0,0.0
0,0,0,0,-24603,26556,0,0,0.0,0.0,0.0,0.0
1,0,0,0,0,0,0,0,0.000125,0.0,0.0,0.000125
0,0,0,0,0,0,0,0,0.0,0.0,0.0,0.0
-24442,26556,0,0,0,0,0,0,-3.05525,3.3195,0.0,4.5115000623406845
0,0,0,0,0,0,0,0,0.0,0.0,0.0,0.0
0,0,0,0,-24437,26556,0,0,0.0,0.0,0.0,0.0
0,0,0,0,0,0,0,0,0.0,0.0,0.0,0.0
0,0,0,0,0,0,0,0,0.0,0.0,0.0,0.0
-23533,26556,0,0,1,0,0,0,-2.941625,3.3195,0.0,4.435339658991744
0,0,0,0,0,0,0,0,0.0,0.0,0.0,0.0
0,0,0,0,-23529,26556,0,0,0.0,0.0,0.0,0.0
1,0,0,0,0,0,0,0,0.000125,0.0,0.0,0.000125
0,0,0,0,0,0,0,0,0.0,0.0,0.0,0.0
-22611,26556,0,0,0,0,0,0,-2.826375,3.3195,0.0,4.359756402670338
0,0,0,0,0,0,0,0,0.0,0.0,0.0,0.0
0,0,0,0,-22605,26556,0,0,0.0,0.0,0.0,0.0
0,0,0,0,0,0,0,0,0.0,0.0,0.0,0.0
0,0,0,0,0,0,0,0,0.0,0.0,0.0,0.0
-21688,26556,0,0,1,0,0,0,-2.711,3.3195,0.0,4.2858606195255575
0,0,0,0,0,0,0,0,0.0,0.0,0.0,0.0
0,0,0,0,-21680,26556,0,0,0.0,0.0,0.0,0.0
0,0,0,0,0,0,0,0,0.0,0.0,0.0,0.0
0,0,0,0,0,0,0,0,0.0,0.0,0.0,0.0
-21046,26556,0,0,1,0,0,0,-2.63075,3.3195,0.0,4.235554959211367
0,0,0,0,0,0,0,0,0.0,0.0,0.0,0.0
0,0,0,0,-21043,26556,0,0,0.0,0.0,0.0,0.0
1,0,0,0,0,0,0,0,0.000125,0.0,0.0,0.000125
0,0,0,0,0,0,0,0,0.0,0.0,0.0,0.0
-20123,26556,0,0,0,0,0,0,-2.515375,3.3195,0.0,4.1648759454064175
0,0,0,0,0,0,0,0,0.0,0.0,0.0,0.0
0,0,0,0,-20118,26556,0,0,0.0,0.0,0.0,0.0
0,0,0,0,0,0,0,0,0.0,0.0,0.0,0.0
0,0,0,0,0,0,0,0,0.0,0.0,0.0,0.0
-19201,26556,0,0,1,0,0,0,-2.400125,3.3195,0.0,4.096300802629734
0,0,0,0,0,0,0,0,0.0,0.0,0.0,0.0
0,0,0,0,-19194,26556,0,0,0.0,0.0,0.0,0.0
0,0,0,0,0,0,0,0,0.0,0.0,0.0,0.0
0,0,0,0,0,0,0,0,0.0,0.0,0.0,0.0
-18279,26556,0,0,1,0,0,0,-2.284875,3.3195,0.0,4.029855334329633
0,0,0,0,0,0,0,0,0.0,0.0,0.0,0.0
0,0,0,0,-18277,26556,0,0,0.0,0.0,0.0,0.0
1,0,0,0,0,0,0,0,0.000125,0.0,0.0,0.000125
0,0,0,0,0,0,0,0,0.0,0.0,0.0,0.0
-17357,26556,0,0,0,0,0,0,-2.169625,3.3195,0.0,3.96564659174579
0,0,0,0,0,0,0,0,0.0,0.0,0.0,0.0
0,0,0,0,-17353,26556,0,0,0.0,0.0,0.0,0.0
0,0,0,0,0,0,0,0,0.0,0.0,0.0,0.0
0,0,0,0,0,0,0,0,0.0,0.0,0.0,0.0
-17182,26556,0,0,1,0,0,0,-2.14775,3.3195,0.0,3.9537210716614797
0,0,0,0,0,0,0,0,0.0,0.0,0.0,0.0
0,0,0,0,-17176,26556,0,0,0.0,0.0,0.0,0.0
1,0,0,0,0,0,0,0,0.000125,0.0,0.0,0.000125
0,0,0,0,0,0,0,0,0.0,0.0,0.0,0.0
-16271,26556,0,0,0,0,0,0,-2.033875,3.3195,0.0,3.893035803280648
0,0,0,0,0,0,0,0,0.0,0.0,0.0,0.0
0,0,0,0,-16268,26556,0,0,0.0,0.0,0.0,0.0
0,0,0,0,0,0,0,0,0.0,0.0,0.0,0.0
0,0,0,0,0,0,0,0,0.0,0.0,0.0,0.0
-15347,26556,0,0,1,0,0,0,-1.918375,3.3195,0.0,3.8339591665307284
0,0,0,0,0,0,0,0,0.0,0.0,0.0,0.0
0,0,0,0,-15343,26556,0,0,0.0,0.0,0.0,0.0
1,0,0,0,0,0,0,0,0.000125,0.0,0.0,0.000125
0,0,0,0,0,0,0,0,0.0,0.0,0.0,0.0
-14424,26556,0,0,0,0,0,0,-1.803,3.3195,0.0,3.7775506945638733
0,0,0,0,0,0,0,0,0.0,0.0,0.0,0.0
0,0,0,0,-14418,26556,0,0,0.0,0.0,0.0,0.0
1,0,0,0,0,0,0,0,0.000125,0.0,0.0,0.000125
0,0,0,0,0,0,0,0,0.0,0.0,0.0,0.0
-14134,26556,0,0,0,0,0,0,-1.76675,3.3195,0.0,3.760383732081076
0,0,0,0,0,0,0,0,0.0,0.0,0.0,0.0
0,0,0,0,-14133,26556,0,0,0.0,0.0,0.0,0.0
0,0,0,0,0,0,0,0,0.0,0.0,0.0,0.0
0,0,0,0,0,0,0,0,0.0,0.0,0.0,0.0
-14073,26556,0,0,0,0,0,0,-1.759125,3.3195,0.0,3.756807290190036
0,0,0,0,0,0,0,0,0.0,0.0,0.0,0.0
0,0,0,0,-13522,26556,0,0,0.0,0.0,0.0,0.0
1,0,0,0,0,0,0,0,0.000125,0.0,0.0,0.000125
0,0,0,0,0,0,0,0,0.0,0.0,0.0,0.0
-13520,26556,0,0,1,0,0,0,-1.69,3.3195,0.0,3.724940301535046
0,0,0,0,0,0,0,0,0.0,0.0,0.0,0.0
0,0,0,0,-12600,26556,0,0,0.0,0.0,0.0,0.0
0,0,0,0,0,0,0,0,0.0,0.0,0.0,0.0
0,0,0,0,0,0,0,0,0.0,0.0,0.0,0.0
-12596,26556,0,0,0,0,0,0,-1.5745,3.3195,0.0,3.6739801986401615
0,0,0,0,0,0,0,0,0.0,0.0,0.0,0.0
0,0,0,0,-11678,26556,0,0,0.0,0.0,0.0,0.0
1,0,0,0,0,0,0,0,0.000125,0.0,0.0,0.000125
0,0,0,0,0,0,0,0,0.0,0.0,0.0,0.0
-11672,26556,0,0,0,0,0,0,-1.459,3.3195,0.0,3.6259841767442946
0,0,0,0,0,0,0,0,0.0,0.0,0.0,0.0
0,0,0,0,-10756,26556,0,0,0.0,0.0,0.0,0.0
1,0,0,0,0,0,0,0,0.000125,0.0,0.0,0.000125
0,0,0,0,0,0,0,0,0.0,0.0,0.0,0.0
-10755,26556,0,0,1,0,0,0,-1.344375,3.3195,0.0,3.581399780899223
0,0,0,0,0,0,0,0,0.0,0.0,0.0,0.0
0,0,0,0,-9862,26556,0,0,0.0,0.0,0.0,0.0
0,0,0,0,0,0,0,0,0.0,0.0,0.0,0.0
0,0,0,0,0,0,0,0,0.0,0.0,0.0,0.0
-9859,26556,0,0,0,0,0,0,-1.232375,3.3195,0.0,3.540879606909136
0,0,0,0,0,0,0,0,0.0,0.0,0.0,0.0
0,0,0,0,-8940,26556,0,0,0.0,0.0,0.0,0.0
1,0,0,0,0,0,0,0,0.000125,0.0,0.0,0.000125
0,0,0,0,0,0,0,0,0.0,0.0,0.0,0.0
-8935,26556,0,0,1,0,0,0,-1.116875,3.3195,0.0,3.5023549242795196
0,0,0,0,0,0,0,0,0.0,0.0,0.0,0.0
0,0,0,0,-8017,26556,0,0,0.0,0.0,0.0,0.0
0,0,0,0,0,0,0,0,0.0,0.0,0.0,0.0
0,0,0,0,0,0,0,0,0.0,0.0,0.0,0.0
-8011,26556,0,0,0,0,0,0,-1.0013750000000001,3.3195,0.0,3.4672513812276433
0,0,0,0,0,0,0,0,0.0,0.0,0.0,0.0
0,0,0,0,-7095,26556,0,0,0.0,0.0,0.0,0.0
1,0,0,0,0,0,0,0,0.000125,0.0,0.0,0.000125
0,0,0,0,0,0,0,0,0.0,0.0,0.0,0.0
-7087,26556,0,0,0,0,0,0,-0.885875,3.3195,0.0,3.435673844477237
0,0,0,0,0,0,0,0,0.0,0.0,0.0,0.0
0,0,0,0,-6202,26556,0,0,0.0,0.0,0.0,0.0
1,0,0,0,0,0,0,0,0.000125,0.0,0.0,0.000125
0,0,0,0,0,0,0,0,0.0,0.0,0.0,0.0
-6200,26556,0,0,1,0,0,0,-0.775,3.3195,0.0,3.408768876002009
0,0,0,0,0,0,0,0,0.0,0.0,0.0,0.0
0,0,0,0,-5280,26556,0,0,0.0,0.0,0.0,0.0
0,0,0,0,0,0,0,0,0.0,0.0,0.0,0.0
0,0,0,0,0,0,0,0,0.0,0.0,0.0,0.0
-5276,26556,0,0,0,0,0,0,-0.6595,3.3195,0.0,3.384378894272921
0,0,0,0,0,0,0,0,0.0,0.0,0.0,0.0
0,0,0,0,-4358,26556,0,0,0.0,0.0,0.0,0.0
1,0,0,0,0,0,0,0,0.000125,0.0,0.0,0.000125
0,0,0,0,0,0,0,0,0.0,0.0,0.0,0.0
-4351,26556,0,0,0,0,0,0,-0.543875,3.3195,0.0,3.363759840658218
0,0,0,0,0,0,0,0,0.0,0.0,0.0,0.0
0,0,0,0,-3435,26556,0,0,0.0,0.0,0.0,0.0
1,0,0,0,0,0,0,0,0.000125,0.0,0.0,0.000125
0,0,0,0,0,0,0,0,0.0,0.0,0.0,0.0
-3434,26556,0,0,1,0,0,0,-0.42925,3.3195,0.0,3.347138451349152
0,0,0,0,0,0,0,0,0.0,0.0,0.0,0.0
0,0,0,0,-2542,26556,0,0,0.0,0.0,0.0,0.0
0,0,0,0,0,0,0,0,0.0,0.0,0.0,0.0
0,0,0,0,0,0,0,0,0.0,0.0,0.0,0.0
-2540,26556,0,0,0,0,0,0,-0.3175,3.3195,0.0,3.3346493818691045
0,0,0,0,0,0,0,0,0.0,0.0,0.0,0.0
0,0,0,0,-1615,26556,0,0,0.0,0.0,0.0,0.0
1,0,0,0,0,0,0,0,0.000125,0.0,0.0,0.000125
0,0,0,0,0,0,0,0,0.0,0.0,0.0,0.0
-1615,26556,0,0,1,0,0,0,-0.201875,3.3195,0.0,3.325632836863534
0,0,0,0,0,0,0,0,0.0,0.0,0.0,0.0
0,0,0,0,-692,26556,0,0,0.0,0.0,0.0,0.0
0,0,0,0,0,0,0,0,0.0,0.0,0.0,0.0
0,0,0,0,0,0,0,0,0.0,0.0,0.0,0.0
-690,26556,0,0,0,0,0,0,-0.08625000000000001,3.3195,0.0,3.320620320437132
0,0,0,0,0,0,0,0,0.0,0.0,0.0,0.0
0,0,0,0,247,26557,0,0,0.0,0.0,0.0,0.0
1,0,0,0,0,0,0,0,0.000125,0.0,0.0,0.000125
0,0,0,0,0,0,0,0,0.0,0.0,0.0,0.0
249,26557,0,0,1,0,0,0,0.031125,3.3196250000000003,0.0,3.3197709117121326
0,0,0,0,0,0,0,0,0.0,0.0,0.0,0.0
0,0,0,0,1118,26557,0,0,0.0,0.0,0.0,0.0
0,0,0,0,0,0,0,0,0.0,0.0,0.0,0.0
0,0,0,0,0,0,0,0,0.0,0.0,0.0,0.0
1122,26557,0,0,0,0,0,0,0.14025,3.3196250000000003,0.0,3.322586372560539
0,0,0,0,0,0,0,0,0.0,0.0,0.0,0.0
0,0,0,0,1716,26557,0,0,0.0,0.0,0.0,0.0
1,0,0,0,0,0,0,0,0.000125,0.0,0.0,0.000125
0,0,0,0,0,0,0,0,0.0,0.0,0.0,0.0
1722,26557,0,0,0,0,0,0,0.21525,3.3196250000000003,0.0,3.3265962639197744
0,0,0,0,0,0,0,0,0.0,0.0,0.0,0.0
0,0,0,0,1778,26557,0,0,0.0,0.0,0.0,0.0
1,0,0,0,0,0,0,0,0.000125,0.0,0.0,0.000125
0,0,0,0,0,0,0,0,0.0,0.0,0.0,0.0
1787,26557,0,0,0,0,0,0,0.22337500000000002,3.3196250000000003,0.0,3.3271318776462713
0,0,0,0,0,0,0,0,0.0,0.0,0.0,0.0
0,0,0,0,1843,26557,0,0,0.0,0.0,0.0,0.0
1,0,0,0,0,0,0,0,0.000125,0.0,0.0,0.000125
0,0,0,0,0,0,0,0,0.0,0.0,0.0,0.0
1851,26557,0,0,0,0,0,0,0.231375,3.3196250000000003,0.0,3.327678549867761
0,0,0,0,0,0,0,0,0.0,0.0,0.0,0.0
0,0,0,0,1907,26557,0,0,0.0,0.0,0.0,0.0
1,0,0,0,0,0,0,0,0.000125,0.0,0.0,0.000125
0,0,0,0,0,0,0,0,0.0,0.0,0.0,0.0
1916,26557,0,0,0,0,0,0,0.23950000000000002,3.3196250000000003,0.0,3.3282533543324195
0,0,0,0,0,0,0,0,0.0,0.0,0.0,0.0
0,0,0,0,1972,26557,0,0,0.0,0.0,0.0,0.0
1,0,0,0,0,0,0,0,0.000125,0.0,0.0,0.000125
0,0,0,0,0,0,0,0,0.0,0.0,0.0,0.0
1980,26557,0,0,0,0,0,0,0.2475,3.3196250000000003,0.0,3.3288385948593247
0,0,0,0,0,0,0,0,0.0,0.0,0.0,0.0
0,0,0,0,2037,26557,0,0,0.0,0.0,0.0,0.0
1,0,0,0,0,0,0,0,0.000125,0.0,0.0,0.000125
0,0,0,0,0,0,0,0,0.0,0.0,0.0,0.0
2045,26557,0,0,0,0,0,0,0.255625,3.3196250000000003,0.0,3.329452549782021
0,0,0,0,0,0,0,0,0.0,0.0,0.0,0.0
0,0,0,0,2101,26557,0,0,0.0,0.0,0.0,0.0
1,0,0,0,0,0,0,0,0.000125,0.0,0.0,0.000125
0,0,0,0,0,0,0,0,0.0,0.0,0.0,0.0
2109,26557,0,0,0,0,0,0,0.263625,3.3196250000000003,0.0,3.330076317631475
0,0,0,0,0,0,0,0,0.0,0.0,0.0,0.0
0,0,0,0,2166,26557,0,0,0.0,0.0,0.0,0.0
1,0,0,0,0,0,0,0,0.000125,0.0,0.0,0.000125
0,0,0,0,0,0,0,0,0.0,0.0,0.0,0.0
2174,26557,0,0,0,0,0,0,0.27175,3.3196250000000003,0.0,3.3307293800495112
0,0,0,0,0,0,0,0,0.0,0.0,0.0,0.0
0,0,0,0,2230,26557,0,0,0.0,0.0,0.0,0.0
1,0,0,0,0,0,0,0,0.000125,0.0,0.0,0.000125
0,0,0,0,0,0,0,0,0.0,0.0,0.0,0.0
2238,26557,0,0,0,0,0,0,0.27975,3.3196250000000003,0.0,3.3313916316045766
0,0,0,0,0,0,0,0,0.0,0.0,0.0,0.0
0,0,0,0,2295,26557,0,0,0.0,0.0,0.0,0.0
1,0,0,0,0,0,0,0,0.000125,0.0,0.0,0.000125
0,0,0,0,0,0,0,0,0.0,0.0,0.0,0.0
2303,26557,0,0,0,0,0,0,0.287875,3.3196250000000003,0.0,3.332083755887598
0,0,0,0,0,0,0,0,0.0,0.0,0.0,0.0
0,0,0,0,2360,26557,0,0,0.0,0.0,0.0,0.0
1,0,0,0,0,0,0,0,0.000125,0.0,0.0,0.000125
0,0,0,0,0,0,0,0,0.0,0.0,0.0,0.0
2368,26557,0,0,0,0,0,0,0.296,3.3196250000000003,0.0,3.332795544377873
0,0,0,0,0,0,0,0,0.0,0.0,0.0,0.0
0,0,0,0,2425,26557,0,0,0.0,0.0,0.0,0.0
1,0,0,0,0,0,0,0,0.000125,0.0,0.0,0.000125
0,0,0,0,0,0,0,0,0.0,0.0,0.0,0.0
2433,26557,0,0,0,0,0,0,0.304125,3.3196250000000003,0.0,3.333526984479052
0,0,0,0,0,0,0,0,0.0,0.0,0.0,0.0
0,0,0,0,2490,26557,0,0,0.0,0.0,0.0,0.0
1,0,0,0,0,0,0,0,0.000125,0.0,0.0,0.000125
0,0,0,0,0,0,0,0,0.0,0.0,0.0,0.0
2498,26557,0,0,0,0,0,0,0.31225,3.3196250000000003,0.0,3.3342780632582225
0,0,0,0,0,0,0,0,0.0,0.0,0.0,0.0
0,0,0,0,2555,26557,0,0,0.0,0.0,0.0,0.0
1,0,0,0,0,0,0,0,0.000125,0.0,0.0,0.000125
0,0,0,0,0,0,0,0,0.0,0.0,0.0,0.0
2563,26557,0,0,0,0,0,0,0.320375,3.3196250000000003,0.0,3.3350487674470375
0,0,0,0,0,0,0,0,0.0,0.0,0.0,0.0
0,0,0,0,2619,26557,0,0,0.0,0.0,0.0,0.0
1,0,0,0,0,0,0,0,0.000125,0.0,0.0,0.000125
0,0,0,0,0,0,0,0,0.0,0.0,0.0,0.0
2628,26557,0,0,0,0,0,0,0.3285,3.3196250000000003,0.0,3.3358390834428753
0,0,0,0,0,0,0,0,0.0,0.0,0.0,0.0
0,0,0,0,2684,26557,0,0,0.0,0.0,0.0,0.0
1,0,0,0,0,0,0,0,0.000125,0.0,0.0,0.000125
0,0,0,0,0,0,0,0,0.0,0.0,0.0,0.0
2692,26557,0,0,0,0,0,0,0.3365,3.3196250000000003,0.0,3.3366363887341697
0,0,0,0,0,0,0,0,0.0,0.0,0.0,0.0
0,0,0,0,2749,26557,0,0,0.0,0.0,0.0,0.0
1,0,0,0,0,0,0,0,0.000125,0.0,0.0,0.000125
0,0,0,0,0,0,0,0,0.0,0.0,0.0,0.0
2757,26557,0,0,0,0,0,0,0.344625,3.3196250000000003,0.0,3.337465585028556
0,0,0,0,0,0,0,0,0.0,0.0,0.0,0.0
0,0,0,0,2814,26557,0,0,0.0,0.0,0.0,0.0
1,0,0,0,0,0,0,0,0.000125,0.0,0.0,0.000125
0,0,0,0,0,0,0,0,0.0,0.0,0.0,0.0
2822,26557,0,0,0,0,0,0,0.35275,3.3196250000000003,0.0,3.3383143505555317
0,0,0,0,0,0,0,0,0.0,0.0,0.0,0.0
0,0,0,0,2879,26557,0,0,0.0,0.0,0.0,0.0
1,0,0,0,0,0,0,0,0.000125,0.0,0.0,0.000125
0,0,0,0,0,0,0,0,0.0,0.0,0.0,0.0
2887,26557,0,0,0,0,0,0,0.360875,3.3196250000000003,0.0,3.3391826703925624
0,0,0,0,0,0,0,0,0.0,0.0,0.0,0.0
0,0,0,0,2944,26557,0,0,0.0,0.0,0.0,0.0
1,0,0,0,0,0,0,0,0.000125,0.0,0.0,0.000125
0,0,0,0,0,0,0,0,0.0,0.0,0.0,0.0
2952,26557,0,0,0,0,0,0,0.369,3.3196250000000003,0.0,3.340070529289015
0,0,0,0,0,0,0,0,0.0,0.0,0.0,0.0
0,0,0,0,3008,26557,0,0,0.0,0.0,0.0,0.0
1,0,0,0,0,0,0,0,0.000125,0.0,0.0,0.000125
0,0,0,0,0,0,0,0,0.0,0.0,0.0,0.0
3016,26557,0,0,0,0,0,0,0.377,3.3196250000000003,0.0,3.3409638041476897
0,0,0,0,0,0,0,0,0.0,0.0,0.0,0.0
0,0,0,0,3073,26557,0,0,0.0,0.0,0.0,0.0
1,0,0,0,0,0,0,0,0.000125,0.0,0.0,0.000125
0,0,0,0,0,0,0,0,0.0,0.0,0.0,0.0
3081,26557,0,0,0,0,0,0,0.385125,3.3196250000000003,0.0,3.341890394110795
0,0,0,0,0,0,0,0,0.0,0.0,0.0,0.0
0,0,0,0,3137,26557,0,0,0.0,0.0,0.0,0.0
1,0,0,0,0,0,0,0,0.000125,0.0,0.0,0.000125
0,0,0,0,0,0,0,0,0.0,0.0,0.0,0.0
3145,26557,0,0,0,0,0,0,0.393125,3.3196250000000003,0.0,3.3428217730309826
0,0,0,0,0,0,0,0,0.0,0.0,0.0,0.0
0,0,0,0,3202,26557,0,0,0.0,0.0,0.0,0.0
1,0,0,0,0,0,0,0,0.000125,0.0,0.0,0.000125
0,0,0,0,0,0,0,0,0.0,0.0,0.0,0.0
3210,26557,0,0,0,0,0,0,0.40125,3.3196250000000003,0.0,3.3437870301687878
0,0,0,0,0,0,0,0,0.0,0.0,0.0,0.0
0,0,0,0,3266,26557,0,0,0.0,0.0,0.0,0.0
1,0,0,0,0,0,0,0,0.000125,0.0,0.0,0.000125
0,0,0,0,0,0,0,0,0.0,0.0,0.0,0.0
3274,26557,0,0,0,0,0,0,0.40925,3.3196250000000003,0.0,3.344756448999688
0,0,0,0,0,0,0,0,0.0,0.0,0.0,0.0
0,0,0,0,3331,26557,0,0,0.0,0.0,0.0,0.0
1,0,0,0,0,0,0,0,0.000125,0.0,0.0,0.000125
0,0,0,0,0,0,0,0,0.0,0.0,0.0,0.0
3339,26557,0,0,0,0,0,0,0.417375,3.3196250000000003,0.0,3.3457603069033506
0,0,0,0,0,0,0,0,0.0,0.0,0.0,0.0
0,0,0,0,3395,26557,0,0,0.0,0.0,0.0,0.0
1,0,0,0,0,0,0,0,0.000125,0.0,0.0,0.000125
0,0,0,0,0,0,0,0,0.0,0.0,0.0,0.0
3403,26557,0,0,0,0,0,0,0.425375,3.3196250000000003,0.0,3.3467676990269286
0,0,0,0,0,0,0,0,0.0,0.0,0.0,0.0
0,0,0,0,3460,26557,0,0,0.0,0.0,0.0,0.0
1,0,0,0,0,0,0,0,0.000125,0.0,0.0,0.000125
0,0,0,0,0,0,0,0,0.0,0.0,0.0,0.0
3468,26557,0,0,0,0,0,0,0.4335,3.3196250000000003,0.0,3.347810088793121
0,0,0,0,0,0,0,0,0.0,0.0,0.0,0.0
0,0,0,0,3524,26557,0,0,0.0,0.0,0.0,0.0
1,0,0,0,0,0,0,0,0.000125,0.0,0.0,0.000125
0,0,0,0,0,0,0,0,0.0,0.0,0.0,0.0
3532,26557,0,0,0,0,0,0,0.4415,3.3196250000000003,0.0,3.348855385146543
0,0,0,0,0,0,0,0,0.0,0.0,0.0,0.0
0,0,0,0,3589,26557,0,0,0.0,0.0,0.0,0.0
1,0,0,0,0,0,0,0,0.000125,0.0,0.0,0.000125
0,0,0,0,0,0,0,0,0.0,0.0,0.0,0.0
3597,26557,0,0,0,0,0,0,0.449625,3.3196250000000003,0.0,3.349936235400609
0,0,0,0,0,0,0,0,0.0,0.0,0.0,0.0
0,0,0,0,3653,26557,0,0,0.0,0.0,0.0,0.0
1,0,0,0,0,0,0,0,0.000125,0.0,0.0,0.000125
0,0,0,0,0,0,0,0,0.0,0.0,0.0,0.0
3662,26557,0,0,0,0,0,0,0.45775,3.3196250000000003,0.0,3.3510364371526915
0,0,0,0,0,0,0,0,0.0,0.0,0.0,0.0
0,0,0,0,3718,26557,0,0,0.0,0.0,0.0,0.0
1,0,0,0,0,0,0,0,0.000125,0.0,0.0,0.000125
0,0,0,0,0,0,0,0,0.0,0.0,0.0,0.0
3726,26557,0,0,0,0,0,0,0.46575,3.3196250000000003,0.0,3.3521386014192496
0,0,0,0,0,0,0,0,0.0,0.0,0.0,0.0
0,0,0,0,3783,26557,0,0,0.0,0.0,0.0,0.0
1,0,0,0,0,0,0,0,0.000125,0.0,0.0,0.000125
0,0,0,0,0,0,0,0,0.0,0.0,0.0,0.0
3791,26557,0,0,0,0,0,0,0.473875,3.3196250000000003,0.0,3.3532771517203885
0,0,0,0,0,0,0,0,0.0,0.0,0.0,0.0
0,0,0,0,3847,26557,0,0,0.0,0.0,0.0,0.0
1,0,0,0,0,0,0,0,0.000125,0.0,0.0,0.000125
0,0,0,0,0,0,0,0,0.0,0.0,0.0,0.0
3856,26557,0,0,0,0,0,0,0.482,3.3196250000000003,0.0,3.3544349957369874
0,0,0,0,0,0,0,0,0.0,0.0,0.0,0.0
0,0,0,0,3912,26557,0,0,0.0,0.0,0.0,0.0
1,0,0,0,0,0,0,0,0.000125,0.0,0.0,0.000125
0,0,0,0,0,0,0,0,0.0,0.0,0.0,0.0
3920,26557,0,0,0,0,0,0,0.49,3.3196250000000003,0.0,3.3555938581158777
0,0,0,0,0,0,0,0,0.0,0.0,0.0,0.0
0,0,0,0,3977,26557,0,0,0.0,0.0,0.0,0.0
1,0,0,0,0,0,0,0,0.000125,0.0,0.0,0.000125
0,0,0,0,0,0,0,0,0.0,0.0,0.0,0.0
3985,26557,0,0,0,0,0,0,0.498125,3.3196250000000003,0.0,3.3567899332919247
0,0,0,0,0,0,0,0,0.0,0.0,0.0,0.0
0,0,0,0,4041,26557,0,0,0.0,0.0,0.0,0.0
1,0,0,0,0,0,0,0,0.000125,0.0,0.0,0.000125
0,0,0,0,0,0,0,0,0.0,0.0,0.0,0.0
4049,26557,0,0,0,0,0,0,0.506125,3.3196250000000003,0.0,3.357986399056733
0,0,0,0,0,0,0,0,0.0,0.0,0.0,0.0
0,0,0,0,4106,26557,0,0,0.0,0.0,0.0,0.0
1,0,0,0,0,0,0,0,0.000125,0.0,0.0,0.000125
0,0,0,0,0,0,0,0,0.0,0.0,0.0,0.0
4114,26557,0,0,0,0,0,0,0.51425,3.3196250000000003,0.0,3.3592206243599128
0,0,0,0,0,0,0,0,0.0,0.0,0.0,0.0
0,0,0,0,4170,26557,0,0,0.0,0.0,0.0,0.0
1,0,0,0,0,0,0,0,0.000125,0.0,0.0,0.000125
0,0,0,0,0,0,0,0,0.0,0.0,0.0,0.0
4178,26557,0,0,0,0,0,0,0.52225,3.3196250000000003,0.0,3.360454612567324
0,0,0,0,0,0,0,0,0.0,0.0,0.0,0.0
0,0,0,0,4235,26557,0,0,0.0,0.0,0.0,0.0
1,0,0,0,0,0,0,0,0.000125,0.0,0.0,0.000125
0,0,0,0,0,0,0,0,0.0,0.0,0.0,0.0
4243,26557,0,0,0,0,0,0,0.530375,3.3196250000000003,0.0,3.3617269046206
0,0,0,0,0,0,0,0,0.0,0.0,0.0,0.0
0,0,0,0,4300,26557,0,0,0.0,0.0,0.0,0.0
1,0,0,0,0,0,0,0,0.000125,0.0,0.0,0.000125
0,0,0,0,0,0,0,0,0.0,0.0,0.0,0.0
4308,26557,0,0,0,0,0,0,0.5385,3.3196250000000003,0.0,3.363018345270362
0,0,0,0,0,0,0,0,0.0,0.0,0.0,0.0
0,0,0,0,4365,26557,0,0,0.0,0.0,0.0,0.0
1,0,0,0,0,0,0,0,0.000125,0.0,0.0,0.000125
0,0,0,0,0,0,0,0,0.0,0.0,0.0,0.0
4373,26557,0,0,0,0,0,0,0.546625,3.3196250000000003,0.0,3.364328912465308
0,0,0,0,0,0,0,0,0.0,0.0,0.0,0.0
0,0,0,0,5289,26557,0,0,0.0,0.0,0.0,0.0
1,0,0,0,0,0,0,0,0.000125,0.0,0.0,0.000125
0,0,0,0,0,0,0,0,0.0,0.0,0.0,0.0
5292,26557,0,0,1,0,0,0,0.6615,3.3196250000000003,0.0,3.384891784182325
0,0,0,0,0,0,0,0,0.0,0.0,0.0,0.0
0,0,0,0,6307,26557,0,0,0.0,0.0,0.0,0.0
0,0,0,0,0,0,0,0,0.0,0.0,0.0,0.0
0,0,0,0,0,0,0,0,0.0,0.0,0.0,0.0
6311,26557,0,0,1,0,0,0,0.788875,3.3196250000000003,0.0,3.4120717908991893
0,0,0,0,0,0,0,0,0.0,0.0,0.0,0.0
0,0,0,0,7247,26557,0,0,0.0,0.0,0.0,0.0
0,0,0,0,0,0,0,0,0.0,0.0,0.0,0.0
0,0,0,0,0,0,0,0,0.0,0.0,0.0,0.0
7253,26557,0,0,0,0,0,0,0.906625,3.3196250000000003,0.0,3.4412031371672906
0,0,0,0,0,0,0,0,0.0,0.0,0.0,0.0
0,0,0,0,7658,26557,0,0,0.0,0.0,0.0,0.0
1,0,0,0,0,0,0,0,0.000125,0.0,0.0,0.000125
0,0,0,0,0,0,0,0,0.0,0.0,0.0,0.0
7665,26557,0,0,0,0,0,0,0.958125,3.3196250000000003,0.0,3.4551286019843026
0,0,0,0,0,0,0,0,0.0,0.0,0.0,0.0
0,0,0,0,7721,26557,0,0,0.0,0.0,0.0,0.0
1,0,0,0,0,0,0,0,0.000125,0.0,0.0,0.000125
0,0,0,0,0,0,0,0,0.0,0.0,0.0,0.0
7729,26557,0,0,0,0,0,0,0.966125,3.3196250000000003,0.0,3.4573555871865427
0,0,0,0,0,0,0,0,0.0,0.0,0.0,0.0
0,0,0,0,7786,26557,0,0,0.0,0.0,0.0,0.0
1,0,0,0,0,0,0,0,0.000125,0.0,0.0,0.000125
0,0,0,0,0,0,0,0,0.0,0.0,0.0,0.0
7794,26557,0,0,0,0,0,0,0.9742500000000001,3.3196250000000003,0.0,3.4596348366735183
0,0,0,0,0,0,0,0,0.0,0.0,0.0,0.0
0,0,0,0,7850,26557,0,0,0.0,0.0,0.0,0.0
1,0,0,0,0,0,0,0,0.000125,0.0,0.0,0.000125
0,0,0,0,0,0,0,0,0.0,0.0,0.0,0.0
7858,26557,0,0,0,0,0,0,0.9822500000000001,3.3196250000000003,0.0,3.461896186069854
0,0,0,0,0,0,0,0,0.0,0.0,0.0,0.0
0,0,0,0,7915,26557,0,0,0.0,0.0,0.0,0.0
1,0,0,0,0,0,0,0,0.000125,0.0,0.0,0.000125
0,0,0,0,0,0,0,0,0.0,0.0,0.0,0.0
7923,26557,0,0,0,0,0,0,0.990375,3.3196250000000003,0.0,3.464210268048116
0,0,0,0,0,0,0,0,0.0,0.0,0.0,0.0
0,0,0,0,7979,26557,0,0,0.0,0.0,0.0,0.0
1,0,0,0,0,0,0,0,0.000125,0.0,0.0,0.000125
0,0,0,0,0,0,0,0,0.0,0.0,0.0,0.0
7987,26557,0,0,0,0,0,0,0.998375,3.3196250000000003,0.0,3.4665058461295
0,0,0,0,0,0,0,0,0.0,0.0,0.0,0.0
0,0,0,0,8044,26557,0,0,0.0,0.0,0.0,0.0
1,0,0,0,0,0,0,0,0.000125,0.0,0.0,0.000125
0,0,0,0,0,0,0,0,0.0,0.0,0.0,0.0
8052,26557,0,0,0,0,0,0,1.0065,3.3196250000000003,0.0,3.4688546222960976
0,0,0,0,0,0,0,0,0.0,0.0,0.0,0.0
0,0,0,0,8108,26557,0,0,0.0,0.0,0.0,0.0
1,0,0,0,0,0,0,0,0.000125,0.0,0.0,0.000125
0,0,0,0,0,0,0,0,0.0,0.0,0.0,0.0
8116,26557,0,0,0,0,0,0,1.0145,3.3196250000000003,0.0,3.4711842922301033
0,0,0,0,0,0,0,0,0.0,0.0,0.0,0.0
0,0,0,0,8173,26557,0,0,0.0,0.0,0.0,0.0
1,0,0,0,0,0,0,0,0.000125,0.0,0.0,0.000125
0,0,0,0,0,0,0,0,0.0,0.0,0.0,0.0
8181,26557,0,0,0,0,0,0,1.0226250000000001,3.3196250000000003,0.0,3.47356762295626
0,0,0,0,0,0,0,0,0.0,0.0,0.0,0.0
0,0,0,0,8237,26557,0,0,0.0,0.0,0.0,0.0
1,0,0,0,0,0,0,0,0.000125,0.0,0.0,0.000125
0,0,0,0,0,0,0,0,0.0,0.0,0.0,0.0
8246,26557,0,0,0,0,0,0,1.03075,3.3196250000000003,0.0,3.4759683115824003
0,0,0,0,0,0,0,0,0.0,0.0,0.0,0.0
0,0,0,0,8302,26557,0,0,0.0,0.0,0.0,0.0
1,0,0,0,0,0,0,0,0.000125,0.0,0.0,0.000125
0,0,0,0,0,0,0,0,0.0,0.0,0.0,0.0
8310,26557,0,0,0,0,0,0,1.03875,3.3196250000000003,0.0,3.4783489909905536
0,0,0,0,0,0,0,0,0.0,0.0,0.0,0.0
0,0,0,0,8366,26557,0,0,0.0,0.0,0.0,0.0
1,0,0,0,0,0,0,0,0.000125,0.0,0.0,0.000125
0,0,0,0,0,0,0,0,0.0,0.0,0.0,0.0
8375,26557,0,0,0,0,0,0,1.046875,3.3196250000000003,0.0,3.4807840217758415
0,0,0,0,0,0,0,0,0.0,0.0,0.0,0.0
0,0,0,0,8431,26557,0,0,0.0,0.0,0.0,0.0
1,0,0,0,0,0,0,0,0.000125,0.0,0.0,0.000125
0,0,0,0,0,0,0,0,0.0,0.0,0.0,0.0
8439,26557,0,0,0,0,0,0,1.054875,3.3196250000000003,0.0,3.483198444856394
0,0,0,0,0,0,0,0,0.0,0.0,0.0,0.0
0,0,0,0,8495,26557,0,0,0.0,0.0,0.0,0.0
1,0,0,0,0,0,0,0,0.000125,0.0,0.0,0.000125
0,0,0,0,0,0,0,0,0.0,0.0,0.0,0.0
8504,26557,0,0,0,0,0,0,1.063,3.3196250000000003,0.0,3.4856676750122064
0,0,0,0,0,0,0,0,0.0,0.0,0.0,0.0
0,0,0,0,8560,26557,0,0,0.0,0.0,0.0,0.0
1,0,0,0,0,0,0,0,0.000125,0.0,0.0,0.000125
0,0,0,0,0,0,0,0,0.0,0.0,0.0,0.0
8568,26557,0,0,0,0,0,0,1.071,3.3196250000000003,0.0,3.488115700578896
0,0,0,0,0,0,0,0,0.0,0.0,0.0,0.0
0,0,0,0,8624,26557,0,0,0.0,0.0,0.0,0.0
1,0,0,0,0,0,0,0,0.000125,0.0,0.0,0.000125
0,0,0,0,0,0,0,0,0.0,0.0,0.0,0.0
8633,26557,0,0,0,0,0,0,1.0791250000000001,3.3196250000000003,0.0,3.490618986118365
0,0,0,0,0,0,0,0,0.0,0.0,0.0,0.0
0,0,0,0,8689,26557,0,0,0.0,0.0,0.0,0.0
1,0,0,0,0,0,0,0,0.000125,0.0,0.0,0.000125
0,0,0,0,0,0,0,0,0.0,0.0,0.0,0.0
8697,26557,0,0,1,0,0,0,1.0871250000000001,3.3196250000000003,0.0,3.493100471822991
0,0,0,0,0,0,0,0,0.0,0.0,0.0,0.0
0,0,0,0,9603,26557,0,0,0.0,0.0,0.0,0.0
0,0,0,0,0,0,0,0,0.0,0.0,0.0,0.0
0,0,0,0,0,0,0,0,0.0,0.0,0.0,0.0
9606,26557,0,0,0,0,0,0,1.20075,3.3196250000000003,0.0,3.5301148286033137
0,0,0,0,0,0,0,0,0.0,0.0,0.0,0.0
0,0,0,0,10525,26557,0,0,0.0,0.0,0.0,0.0
1,0,0,0,0,0,0,0,0.000125,0.0,0.0,0.000125
0,0,0,0,0,0,0,0,0.0,0.0,0.0,0.0
10530,26557,0,0,1,0,0,0,1.31625,3.3196250000000003,0.0,3.5710536544730047
0,0,0,0,0,0,0,0,0.0,0.0,0.0,0.0
0,0,0,0,11448,26557,0,0,0.0,0.0,0.0,0.0
0,0,0,0,0,0,0,0,0.0,0.0,0.0,0.0
0,0,0,0,0,0,0,0,0.0,0.0,0.0,0.0
11454,26557,0,0,0,0,0,0,1.43175,3.3196250000000003,0.0,3.6152203533291027
0,0,0,0,0,0,0,0,0.0,0.0,0.0,0.0
0,0,0,0,12370,26557,0,0,0.0,0.0,0.0,0.0
1,0,0,0,0,0,0,0,0.000125,0.0,0.0,0.000125
0,0,0,0,0,0,0,0,0.0,0.0,0.0,0.0
12378,26557,0,0,0,0,0,0,1.54725,3.3196250000000003,0.0,3.662498150596803
0,0,0,0,0,0,0,0,0.0,0.0,0.0,0.0
0,0,0,0,13292,26557,0,0,0.0,0.0,0.0,0.0
1,0,0,0,0,0,0,0,0.000125,0.0,0.0,0.000125
0,0,0,0,0,0,0,0,0.0,0.0,0.0,0.0
13295,26557,0,0,1,0,0,0,1.661875,3.3196250000000003,0.0,3.7123764162932082
0,0,0,0,0,0,0,0,0.0,0.0,0.0,0.0
0,0,0,0,13359,26557,0,0,0.0,0.0,0.0,0.0
0,0,0,0,0,0,0,0,0.0,0.0,0.0,0.0
0,0,0,0,0,0,0,0,0.0,0.0,0.0,0.0
13363,26557,0,0,1,0,0,0,1.670375,3.3196250000000003,0.0,3.716189282215049
0,0,0,0,0,0,0,0,0.0,0.0,0.0,0.0
0,0,0,0,13420,26557,0,0,0.0,0.0,0.0,0.0
0,0,0,0,0,0,0,0,0.0,0.0,0.0,0.0
0,0,0,0,0,0,0,0,0.0,0.0,0.0,0.0
13428,26557,0,0,1,0,0,0,1.6785,3.3196250000000003,0.0,3.719848436512569
0,0,0,0,0,0,0,0,0.0,0.0,0.0,0.0
0,0,0,0,13484,26557,0,0,0.0,0.0,0.0,0.0
0,0,0,0,0,0,0,0,0.0,0.0,0.0,0.0
0,0,0,0,0,0,0,0,0.0,0.0,0.0,0.0
13492,26557,0,0,1,0,0,0,1.6865,3.3196250000000003,0.0,3.7234651053319947
0,0,0,0,0,0,0,0,0.0,0.0,0.0,0.0
0,0,0,0,13549,26557,0,0,0.0,0.0,0.0,0.0
0,0,0,0,0,0,0,0,0.0,0.0,0.0,0.0
0,0,0,0,0,0,0,0,0.0,0.0,0.0,0.0
13557,26557,0,0,1,0,0,0,1.694625,3.3196250000000003,0.0,3.7271522683209497
0,0,0,0,0,0,0,0,0.0,0.0,0.0,0.0
0,0,0,0,13613,26557,0,0,0.0,0.0,0.0,0.0
0,0,0,0,0,0,0,0,0.0,0.0,0.0,0.0
0,0,0,0,0,0,0,0,0.0,0.0,0.0,0.0
13621,26557,0,0,1,0,0,0,1.702625,3.3196250000000003,0.0,3.730796433906573
0,0,0,0,0,0,0,0,0.0,0.0,0.0,0.0
0,0,0,0,13678,26557,0,0,0.0,0.0,0.0,0.0
0,0,0,0,0,0,0,0,0.0,0.0,0.0,0.0
0,0,0,0,0,0,0,0,0.0,0.0,0.0,0.0
13686,26557,0,0,1,0,0,0,1.71075,3.3196250000000003,0.0,3.7345114410221054
0,0,0,0,0,0,0,0,0.0,0.0,0.0,0.0
0,0,0,0,13742,26557,0,0,0.0,0.0,0.0,0.0
0,0,0,0,0,0,0,0,0.0,0.0,0.0,0.0
0,0,0,0,0,0,0,0,0.0,0.0,0.0,0.0
13750,26557,0,0,1,0,0,0,1.71875,3.3196250000000003,0.0,3.738182941366701
0,0,0,0,0,0,0,0,0.0,0.0,0.0,0.0
0,0,0,0,13807,26557,0,0,0.0,0.0,0.0,0.0
0,0,0,0,0,0,0,0,0.0,0.0,0.0,0.0
0,0,0,0,0,0,0,0,0.0,0.0,0.0,0.0
13815,26557,0,0,1,0,0,0,1.726875,3.3196250000000003,0.0,3.7419256281024618
0,0,0,0,0,0,0,0,0.0,0.0,0.0,0.0
0,0,0,0,13871,26557,0,0,0.0,0.0,0.0,0.0
0,0,0,0,0,0,0,0,0.0,0.0,0.0,0.0
0,0,0,0,0,0,0,0,0.0,0.0,0.0,0.0
13879,26557,0,0,1,0,0,0,1.734875,3.3196250000000003,0.0,3.7456243012680814
0,0,0,0,0,0,0,0,0.0,0.0,0.0,0.0
0,0,0,0,13936,26557,0,0,0.0,0.0,0.0,0.0
0,0,0,0,0,0,0,0,0.0,0.0,0.0,0.0
0,0,0,0,0,0,0,0,0.0,0.0,0.0,0.0
13944,26557,0,0,1,0,0,0,1.743,3.3196250000000003,0.0,3.749394503199817
0,0,0,0,0,0,0,0,0.0,0.0,0.0,0.0
0,0,0,0,14000,26557,0,0,0.0,0.0,0.0,0.0
0,0,0,0,0,0,0,0,0.0,0.0,0.0,0.0
0,0,0,0,0,0,0,0,0.0,0.0,0.0,0.0
14008,26557,0,0,1,0,0,0,1.7510000000000001,3.3196250000000003,0.0,3.753120187340795
0,0,0,0,0,0,0,0,0.0,0.0,0.0,0.0
0,0,0,0,14065,26557,0,0,0.0,0.0,0.0,0.0
0,0,0,0,0,0,0,0,0.0,0.0,0.0,0.0
0,0,0,0,0,0,0,0,0.0,0.0,0.0,0.0
14073,26557,0,0,1,0,0,0,1.759125,3.3196250000000003,0.0,3.756917740149497
0,0,0,0,0,0,0,0,0.0,0.0,0.0,0.0
0,0,0,0,14129,26557,0,0,0.0,0.0,0.0,0.0
0,0,0,0,0,0,0,0,0.0,0.0,0.0,0.0
0,0,0,0,0,0,0,0,0.0,0.0,0.0,0.0
14137,26557,0,0,1,0,0,0,1.767125,3.3196250000000003,0.0,3.7606702735350255
0,0,0,0,0,0,0,0,0.0,0.0,0.0,0.0
0,0,0,0,14194,26557,0,0,0.0,0.0,0.0,0.0
0,0,0,0,0,0,0,0,0.0,0.0,0.0,0.0
0,0,0,0,0,0,0,0,0.0,0.0,0.0,0.0
14202,26557,0,0,1,0,0,0,1.77525,3.3196250000000003,0.0,3.7644950130296366
0,0,0,0,0,0,0,0,0.0,0.0,0.0,0.0
0,0,0,0,14259,26557,0,0,0.0,0.0,0.0,0.0
0,0,0,0,0,0,0,0,0.0,0.0,0.0,0.0
0,0,0,0,0,0,0,0,0.0,0.0,0.0,0.0
14267,26557,0,0,1,0,0,0,1.783375,3.3196250000000003,0.0,3.768333389079316
0,0,0,0,0,0,0,0,0.0,0.0,0.0,0.0
0,0,0,0,14323,26557,0,0,0.0,0.0,0.0,0.0
0,0,0,0,0,0,0,0,0.0,0.0,0.0,0.0
0,0,0,0,0,0,0,0,0.0,0.0,0.0,0.0
14331,26557,0,0,1,0,0,0,1.791375,3.3196250000000003,0.0,3.7721259962055886
0,0,0,0,0,0,0,0,0.0,0.0,0.0,0.0
0,0,0,0,14388,26557,0,0,0.0,0.0,0.0,0.0
0,0,0,0,0,0,0,0,0.0,0.0,0.0,0.0
0,0,0,0,0,0,0,0,0.0,0.0,0.0,0.0
14396,26557,0,0,1,0,0,0,1.7995,3.3196250000000003,0.0,3.7759913123079354
0,0,0,0,0,0,0,0,0.0,0.0,0.0,0.0
0,0,0,0,14452,26557,0,0,0.0,0.0,0.0,0.0
0,0,0,0,0,0,0,0,0.0,0.0,0.0,0.0
0,0,0,0,0,0,0,0,0.0,0.0,0.0,0.0
14460,26557,0,0,1,0,0,0,1.8075,3.3196250000000003,0.0,3.7798103643734566
0,0,0,0,0,0,0,0,0.0,0.0,0.0,0.0
0,0,0,0,14517,26557,0,0,0.0,0.0,0.0,0.0
0,0,0,0,0,0,0,0,0.0,0.0,0.0,0.0
0,0,0,0,0,0,0,0,0.0,0.0,0.0,0.0
14525,26557,0,0,1,0,0,0,1.815625,3.3196250000000003,0.0,3.7837024567544955
0,0,0,0,0,0,0,0,0.0,0.0,0.0,0.0
0,0,0,0,14581,26557,0,0,0.0,0.0,0.0,0.0
0,0,0,0,0,0,0,0,0.0,0.0,0.0,0.0
0,0,0,0,0,0,0,0,0.0,0.0,0.0,0.0
14589,26557,0,0,1,0,0,0,1.823625,3.3196250000000003,0.0,3.787547792602755
0,0,0,0,0,0,0,0,0.0,0.0,0.0,0.0
0,0,0,0,14646,26557,0,0,0.0,0.0,0.0,0.0
0,0,0,0,0,0,0,0,0.0,0.0,0.0,0.0
0,0,0,0,0,0,0,0,0.0,0.0,0.0,0.0
14654,26557,0,0,1,0,0,0,1.83175,3.3196250000000003,0.0,3.7914664976925487
0,0,0,0,0,0,0,0,0.0,0.0,0.0,0.0
0,0,0,0,14710,26557,0,0,0.0,0.0,0.0,0.0
0,0,0,0,0,0,0,0,0.0,0.0,0.0,0.0
0,0,0,0,0,0,0,0,0.0,0.0,0.0,0.0
14718,26557,0,0,1,0,0,0,1.83975,3.3196250000000003,0.0,3.7953379563781935
0,0,0,0,0,0,0,0,0.0,0.0,0.0,0.0
0,0,0,0,14775,26557,0,0,0.0,0.0,0.0,0.0
0,0,0,0,0,0,0,0,0.0,0.0,0.0,0.0
0,0,0,0,0,0,0,0,0.0,0.0,0.0,0.0
14783,26557,0,0,1,0,0,0,1.847875,3.3196250000000003,0.0,3.7992831108315688
0,0,0,0,0,0,0,0,0.0,0.0,0.0,0.0
0,0,0,0,14839,26557,0,0,0.0,0.0,0.0,0.0
0,0,0,0,0,0,0,0,0.0,0.0,0.0,0.0
0,0,0,0,0,0,0,0,0.0,0.0,0.0,0.0
14847,26557,0,0,1,0,0,0,1.855875,3.3196250000000003,0.0,3.80318053164059
0,0,0,0,0,0,0,0,0.0,0.0,0.0,0.0
0,0,0,0,14904,26557,0,0,0.0,0.0,0.0,0.0
0,0,0,0,0,0,0,0,0.0,0.0,0.0,0.0
0,0,0,0,0,0,0,0,0.0,0.0,0.0,0.0
14912,26557,0,0,1,0,0,0,1.864,3.3196250000000003,0.0,3.8071519723574214
0,0,0,0,0,0,0,0,0.0,0.0,0.0,0.0
0,0,0,0,14968,26557,0,0,0.0,0.0,0.0,0.0
0,0,0,0,0,0,0,0,0.0,0.0,0.0,0.0
0,0,0,0,0,0,0,0,0.0,0.0,0.0,0.0
14977,26557,0,0,1,0,0,0,1.872125,3.3196250000000003,0.0,3.811136596377779
0,0,0,0,0,0,0,0,0.0,0.0,0.0,0.0
0,0,0,0,15033,26557,0,0,0.0,0.0,0.0,0.0
0,0,0,0,0,0,0,0,0.0,0.0,0.0,0.0
0,0,0,0,0,0,0,0,0.0,0.0,0.0,0.0
15041,26557,0,0,1,0,0,0,1.880125,3.3196250000000003,0.0,3.8150727589719704
0,0,0,0,0,0,0,0,0.0,0.0,0.0,0.0
0,0,0,0,15097,26557,0,0,0.0,0.0,0.0,0.0
0,0,0,0,0,0,0,0,0.0,0.0,0.0,0.0
0,0,0,0,0,0,0,0,0.0,0.0,0.0,0.0
15106,26557,0,0,1,0,0,0,1.88825,3.3196250000000003,0.0,3.8190834244783134
0,0,0,0,0,0,0,0,0.0,0.0,0.0,0.0
0,0,0,0,15162,26557,0,0,0.0,0.0,0.0,0.0
0,0,0,0,0,0,0,0,0.0,0.0,0.0,0.0
0,0,0,0,0,0,0,0,0.0,0.0,0.0,0.0
15170,26557,0,0,1,0,0,0,1.89625,3.3196250000000003,0.0,3.823045147931816
0,0,0,0,0,0,0,0,0.0,0.0,0.0,0.0
0,0,0,0,15227,26557,0,0,0.0,0.0,0.0,0.0
0,0,0,0,0,0,0,0,0.0,0.0,0.0,0.0
0,0,0,0,0,0,0,0,0.0,0.0,0.0,0.0
15235,26557,0,0,1,0,0,0,1.904375,3.3196250000000003,0.0,3.8270816925236915
0,0,0,0,0,0,0,0,0.0,0.0,0.0,0.0
0,0,0,0,15291,26557,0,0,0.0,0.0,0.0,0.0
0,0,0,0,0,0,0,0,0.0,0.0,0.0,0.0
0,0,0,0,0,0,0,0,0.0,0.0,0.0,0.0
15299,26557,0,0,1,0,0,0,1.912375,3.3196250000000003,0.0,3.831068817086167
0,0,0,0,0,0,0,0,0.0,0.0,0.0,0.0
0,0,0,0,15356,26557,0,0,0.0,0.0,0.0,0.0
0,0,0,0,0,0,0,0,0.0,0.0,0.0,0.0
0,0,0,0,0,0,0,0,0.0,0.0,0.0,0.0
15364,26557,0,0,1,0,0,0,1.9205,3.3196250000000003,0.0,3.8351310786757997
0,0,0,0,0,0,0,0,0.0,0.0,0.0,0.0
0,0,0,0,15420,26557,0,0,0.0,0.0,0.0,0.0
0,0,0,0,0,0,0,0,0.0,0.0,0.0,0.0
0,0,0,0,0,0,0,0,0.0,0.0,0.0,0.0
15428,26557,0,0,1,0,0,0,1.9285,3.3196250000000003,0.0,3.8391434449138524
0,0,0,0,0,0,0,0,0.0,0.0,0.0,0.0
0,0,0,0,15485,26557,0,0,0.0,0.0,0.0,0.0
0,0,0,0,0,0,0,0,0.0,0.0,0.0,0.0
0,0,0,0,0,0,0,0,0.0,0.0,0.0,0.0
15493,26557,0,0,1,0,0,0,1.936625,3.3196250000000003,0.0,3.8432312617444717
0,0,0,0,0,0,0,0,0.0,0.0,0.0,0.0
0,0,0,0,15549,26557,0,0,0.0,0.0,0.0,0.0
0,0,0,0,0,0,0,0,0.0,0.0,0.0,0.0
0,0,0,0,0,0,0,0,0.0,0.0,0.0,0.0
15557,26557,0,0,1,0,0,0,1.944625,3.3196250000000003,0.0,3.84726871055948
0,0,0,0,0,0,0,0,0.0,0.0,0.0,0.0
0,0,0,0,15614,26557,0,0,0.0,0.0,0.0,0.0
0,0,0,0,0,0,0,0,0.0,0.0,0.0,0.0
0,0,0,0,0,0,0,0,0.0,0.0,0.0,0.0
15622,26557,0,0,1,0,0,0,1.95275,3.3196250000000003,0.0,3.8513819212232123
0,0,0,0,0,0,0,0,0.0,0.0,0.0,0.0
0,0,0,0,15678,26557,0,0,0.0,0.0,0.0,0.0
0,0,0,0,0,0,0,0,0.0,0.0,0.0,0.0
0,0,0,0,0,0,0,0,0.0,0.0,0.0,0.0
15686,26557,0,0,1,0,0,0,1.96075,3.3196250000000003,0.0,3.8554442938687368
0,0,0,0,0,0,0,0,0.0,0.0,0.0,0.0
0,0,0,0,15743,26557,0,0,0.0,0.0,0.0,0.0
0,0,0,0,0,0,0,0,0.0,0.0,0.0,0.0
0,0,0,0,0,0,0,0,0.0,0.0,0.0,0.0
15751,26557,0,0,1,0,0,0,1.968875,3.3196250000000003,0.0,3.8595827373240756
0,0,0,0,0,0,0,0,0.0,0.0,0.0,0.0
0,0,0,0,15807,26557,0,0,0.0,0.0,0.0,0.0
0,0,0,0,0,0,0,0,0.0,0.0,0.0,0.0
0,0,0,0,0,0,0,0,0.0,0.0,0.0,0.0
15815,26557,0,0,1,0,0,0,1.976875,3.3196250000000003,0.0,3.8636698754228473
0,0,0,0,0,0,0,0,0.0,0.0,0.0,0.0
0,0,0,0,15872,26557,0,0,0.0,0.0,0.0,0.0
0,0,0,0,0,0,0,0,0.0,0.0,0.0,0.0
0,0,0,0,0,0,0,0,0.0,0.0,0.0,0.0
15880,26557,0,0,1,0,0,0,1.985,3.3196250000000003,0.0,3.8678333910116915
0,0,0,0,0,0,0,0,0.0,0.0,0.0,0.0
0,0,0,0,15936,26557,0,0,0.0,0.0,0.0,0.0
0,0,0,0,0,0,0,0,0.0,0.0,0.0,0.0
0,0,0,0,0,0,0,0,0.0,0.0,0.0,0.0
15944,26557,0,0,1,0,0,0,1.993,3.3196250000000003,0.0,3.8719451365721858
0,0,0,0,0,0,0,0,0.0,0.0,0.0,0.0
0,0,0,0,16001,26557,0,0,0.0,0.0,0.0,0.0
0,0,0,0,0,0,0,0,0.0,0.0,0.0,0.0
0,0,0,0,0,0,0,0,0.0,0.0,0.0,0.0
16009,26557,0,0,1,0,0,0,2.001125,3.3196250000000003,0.0,3.876133564036462
0,0,0,0,0,0,0,0,0.0,0.0,0.0,0.0
0,0,0,0,16065,26557,0,0,0.0,0.0,0.0,0.0
0,0,0,0,0,0,0,0,0.0,0.0,0.0,0.0
0,0,0,0,0,0,0,0,0.0,0.0,0.0,0.0
16073,26557,0,0,1,0,0,0,2.009125,3.3196250000000003,0.0,3.8802697594690505
0,0,0,0,0,0,0,0,0.0,0.0,0.0,0.0
0,0,0,0,16130,26557,0,0,0.0,0.0,0.0,0.0
0,0,0,0,0,0,0,0,0.0,0.0,0.0,0.0
0,0,0,0,0,0,0,0,0.0,0.0,0.0,0.0
16138,26557,0,0,1,0,0,0,2.01725,3.3196250000000003,0.0,3.88448293896691
0,0,0,0,0,0,0,0,0.0,0.0,0.0,0.0
0,0,0,0,16194,26557,0,0,0.0,0.0,0.0,0.0
0,0,0,0,0,0,0,0,0.0,0.0,0.0,0.0
0,0,0,0,0,0,0,0,0.0,0.0,0.0,0.0
16202,26557,0,0,1,0,0,0,2.02525,3.3196250000000003,0.0,3.8886434270996104
0,0,0,0,0,0,0,0,0.0,0.0,0.0,0.0
0,0,0,0,16259,26557,0,0,0.0,0.0,0.0,0.0
0,0,0,0,0,0,0,0,0.0,0.0,0.0,0.0
0,0,0,0,0,0,0,0,0.0,0.0,0.0,0.0
16267,26557,0,0,1,0,0,0,2.033375,3.3196250000000003,0.0,3.8928811992212147
0,0,0,0,0,0,0,0,0.0,0.0,0.0,0.0
0,0,0,0,16323,26557,0,0,0.0,0.0,0.0,0.0
0,0,0,0,0,0,0,0,0.0,0.0,0.0,0.0
0,0,0,0,0,0,0,0,0.0,0.0,0.0,0.0
16331,26557,0,0,1,0,0,0,2.041375,3.3196250000000003,0.0,3.8970658233150237
0,0,0,0,0,0,0,0,0.0,0.0,0.0,0.0
0,0,0,0,16388,26557,0,0,0.0,0.0,0.0,0.0
0,0,0,0,0,0,0,0,0.0,0.0,0.0,0.0
0,0,0,0,0,0,0,0,0.0,0.0,0.0,0.0
16396,26557,0,0,1,0,0,0,2.0495,3.3196250000000003,0.0,3.901328029097913
0,0,0,0,0,0,0,0,0.0,0.0,0.0,0.0
0,0,0,0,16452,26557,0,0,0.0,0.0,0.0,0.0
0,0,0,0,0,0,0,0,0.0,0.0,0.0,0.0
0,0,0,0,0,0,0,0,0.0,0.0,0.0,0.0
16460,26557,0,0,1,0,0,0,2.0575,3.3196250000000003,0.0,3.9055366328617382
0,0,0,0,0,0,0,0,0.0,0.0,0.0,0.0
0,0,0,0,16517,26557,0,0,0.0,0.0,0.0,0.0
0,0,0,0,0,0,0,0,0.0,0.0,0.0,0.0
0,0,0,0,0,0,0,0,0.0,0.0,0.0,0.0
16525,26557,0,0,1,0,0,0,2.065625,3.3196250000000003,0.0,3.90982311380579
0,0,0,0,0,0,0,0,0.0,0.0,0.0,0.0
0,0,0,0,16581,26557,0,0,0.0,0.0,0.0,0.0
0,0,0,0,0,0,0,0,0.0,0.0,0.0,0.0
0,0,0,0,0,0,0,0,0.0,0.0,0.0,0.0
16589,26557,0,0,1,0,0,0,2.073625,3.3196250000000003,0.0,3.9140555414109803
0,0,0,0,0,0,0,0,0.0,0.0,0.0,0.0
0,0,0,0,16646,26557,0,0,0.0,0.0,0.0,0.0
0,0,0,0,0,0,0,0,0.0,0.0,0.0,0.0
0,0,0,0,0,0,0,0,0.0,0.0,0.0,0.0
16654,26557,0,0,1,0,0,0,2.08175,3.3196250000000003,0.0,3.918366139492965
0,0,0,0,0,0,0,0,0.0,0.0,0.0,0.0
0,0,0,0,16710,26557,0,0,0.0,0.0,0.0,0.0
0,0,0,0,0,0,0,0,0.0,0.0,0.0,0.0
0,0,0,0,0,0,0,0,0.0,0.0,0.0,0.0
16718,26557,0,0,1,0,0,0,2.08975,3.3196250000000003,0.0,3.92262223558744
0,0,0,0,0,0,0,0,0.0,0.0,0.0,0.0
0,0,0,0,16775,26557,0,0,0.0,0.0,0.0,0.0
0,0,0,0,0,0,0,0,0.0,0.0,0.0,0.0
0,0,0,0,0,0,0,0,0.0,0.0,0.0,0.0
16783,26557,0,0,1,0,0,0,2.097875,3.3196250000000003,0.0,3.9269567932751697
0,0,0,0,0,0,0,0,0.0,0.0,0.0,0.0
0,0,0,0,16839,26557,0,0,0.0,0.0,0.0,0.0
0,0,0,0,0,0,0,0,0.0,0.0,0.0,0.0
0,0,0,0,0,0,0,0,0.0,0.0,0.0,0.0
16847,26557,0,0,1,0,0,0,2.105875,3.3196250000000003,0.0,3.931236402997154
0,0,0,0,0,0,0,0,0.0,0.0,0.0,0.0
0,0,0,0,16904,26557,0,0,0.0,0.0,0.0,0.0
0,0,0,0,0,0,0,0,0.0,0.0,0.0,0.0
0,0,0,0,0,0,0,0,0.0,0.0,0.0,0.0
16912,26557,0,0,1,0,0,0,2.114,3.3196250000000003,0.0,3.9355947632632353
0,0,0,0,0,0,0,0,0.0,0.0,0.0,0.0
0,0,0,0,16969,26557,0,0,0.0,0.0,0.0,0.0
0,0,0,0,0,0,0,0,0.0,0.0,0.0,0.0
0,0,0,0,0,0,0,0,0.0,0.0,0.0,0.0
16977,26557,0,0,1,0,0,0,2.122125,3.3196250000000003,0.0,3.939965057744802
0,0,0,0,0,0,0,0,0.0,0.0,0.0,0.0
0,0,0,0,17034,26557,0,0,0.0,0.0,0.0,0.0
0,0,0,0,0,0,0,0,0.0,0.0,0.0,0.0
0,0,0,0,0,0,0,0,0.0,0.0,0.0,0.0
17042,26557,0,0,1,0,0,0,2.13025,3.3196250000000003,0.0,3.944347246772906
0,0,0,0,0,0,0,0,0.0,0.0,0.0,0.0
0,0,0,0,17099,26557,0,0,0.0,0.0,0.0,0.0
0,0,0,0,0,0,0,0,0.0,0.0,0.0,0.0
0,0,0,0,0,0,0,0,0.0,0.0,0.0,0.0
17107,26557,0,0,1,0,0,0,2.138375,3.3196250000000003,0.0,3.9487412907469643
0,0,0,0,0,0,0,0,0.0,0.0,0.0,0.0
0,0,0,0,17163,26557,0,0,0.0,0.0,0.0,0.0
0,0,0,0,0,0,0,0,0.0,0.0,0.0,0.0
0,0,0,0,0,0,0,0,0.0,0.0,0.0,0.0
17172,26557,0,0,1,0,0,0,2.1465,3.3196250000000003,0.0,3.953147150135573
0,0,0,0,0,0,0,0,0.0,0.0,0.0,0.0
0,0,0,0,17228,26557,0,0,0.0,0.0,0.0,0.0
0,0,0,0,0,0,0,0,0.0,0.0,0.0,0.0
0,0,0,0,0,0,0,0,0.0,0.0,0.0,0.0
17237,26557,0,0,1,0,0,0,2.1546250000000002,3.3196250000000003,0.0,3.957564785477302
0,0,0,0,0,0,0,0,0.0,0.0,0.0,0.0
0,0,0,0,17293,26557,0,0,0.0,0.0,0.0,0.0
0,0,0,0,0,0,0,0,0.0,0.0,0.0,0.0
0,0,0,0,0,0,0,0,0.0,0.0,0.0,0.0
17302,26557,0,0,1,0,0,0,2.16275,3.3196250000000003,0.0,3.9619941573814823
0,0,0,0,0,0,0,0,0.0,0.0,0.0,0.0
0,0,0,0,17358,26557,0,0,0.0,0.0,0.0,0.0
0,0,0,0,0,0,0,0,0.0,0.0,0.0,0.0
0,0,0,0,0,0,0,0,0.0,0.0,0.0,0.0
17366,26557,0,0,1,0,0,0,2.17075,3.3196250000000003,0.0,3.9663668139904815
0,0,0,0,0,0,0,0,0.0,0.0,0.0,0.0
0,0,0,0,17423,26557,0,0,0.0,0.0,0.0,0.0
0,0,0,0,0,0,0,0,0.0,0.0,0.0,0.0
0,0,0,0,0,0,0,0,0.0,0.0,0.0,0.0
17431,26557,0,0,1,0,0,0,2.178875,3.3196250000000003,0.0,3.970819362077555
0,0,0,0,0,0,0,0,0.0,0.0,0.0,0.0
0,0,0,0,17488,26557,0,0,0.0,0.0,0.0,0.0
0,0,0,0,0,0,0,0,0.0,0.0,0.0,0.0
0,0,0,0,0,0,0,0,0.0,0.0,0.0,0.0
17496,26557,0,0,1,0,0,0,2.187,3.3196250000000003,0.0,3.9752835295894307
0,0,0,0,0,0,0,0,0.0,0.0,0.0,0.0
0,0,0,0,17553,26557,0,0,0.0,0.0,0.0,0.0
0,0,0,0,0,0,0,0,0.0,0.0,0.0,0.0
0,0,0,0,0,0,0,0,0.0,0.0,0.0,0.0
17561,26557,0,0,1,0,0,0,2.195125,3.3196250000000003,0.0,3.979759277424955
0,0,0,0,0,0,0,0,0.0,0.0,0.0,0.0
0,0,0,0,17618,26557,0,0,0.0,0.0,0.0,0.0
0,0,0,0,0,0,0,0,0.0,0.0,0.0,0.0
0,0,0,0,0,0,0,0,0.0,0.0,0.0,0.0
17626,26557,0,0,1,0,0,0,2.20325,3.3196250000000003,0.0,3.984246566557472
0,0,0,0,0,0,0,0,0.0,0.0,0.0,0.0
0,0,0,0,17683,26557,0,0,0.0,0.0,0.0,0.0
0,0,0,0,0,0,0,0,0.0,0.0,0.0,0.0
0,0,0,0,0,0,0,0,0.0,0.0,0.0,0.0
17691,26557,0,0,1,0,0,0,2.211375,3.3196250000000003,0.0,3.9887453580355317
0,0,0,0,0,0,0,0,0.0,0.0,0.0,0.0
0,0,0,0,17748,26557,0,0,0.0,0.0,0.0,0.0
0,0,0,0,0,0,0,0,0.0,0.0,0.0,0.0
0,0,0,0,0,0,0,0,0.0,0.0,0.0,0.0
17756,26557,0,0,1,0,0,0,2.2195,3.3196250000000003,0.0,3.9932556129835968
0,0,0,0,0,0,0,0,0.0,0.0,0.0,0.0
0,0,0,0,17813,26557,0,0,0.0,0.0,0.0,0.0
0,0,0,0,0,0,0,0,0.0,0.0,0.0,0.0
0,0,0,0,0,0,0,0,0.0,0.0,0.0,0.0
17821,26557,0,0,1,0,0,0,2.227625,3.3196250000000003,0.0,3.997777292602729
0,0,0,0,0,0,0,0,0.0,0.0,0.0,0.0
0,0,0,0,17878,26557,0,0,0.0,0.0,0.0,0.0
0,0,0,0,0,0,0,0,0.0,0.0,0.0,0.0
0,0,0,0,0,0,0,0,0.0,0.0,0.0,0.0
17886,26557,0,0,1,0,0,0,2.23575,3.3196250000000003,0.0,4.002310358171266
0,0,0,0,0,0,0,0,0.0,0.0,0.0,0.0
0,0,0,0,17943,26557,0,0,0.0,0.0,0.0,0.0
0,0,0,0,0,0,0,0,0.0,0.0,0.0,0.0
0,0,0,0,0,0,0,0,0.0,0.0,0.0,0.0
17951,26557,0,0,1,0,0,0,2.243875,3.3196250000000003,0.0,4.006854771045489
0,0,0,0,0,0,0,0,0.0,0.0,0.0,0.0
0,0,0,0,18008,26557,0,0,0.0,0.0,0.0,0.0
0,0,0,0,0,0,0,0,0.0,0.0,0.0,0.0
0,0,0,0,0,0,0,0,0.0,0.0,0.0,0.0
18016,26557,0,0,1,0,0,0,2.2520000000000002,3.3196250000000003,0.0,4.011410492660282
0,0,0,0,0,0,0,0,0.0,0.0,0.0,0.0
0,0,0,0,18073,26557,0,0,0.0,0.0,0.0,0.0
0,0,0,0,0,0,0,0,0.0,0.0,0.0,0.0
0,0,0,0,0,0,0,0,0.0,0.0,0.0,0.0
18081,26557,0,0,1,0,0,0,2.260125,3.3196250000000003,0.0,4.015977484529763
0,0,0,0,0,0,0,0,0.0,0.0,0.0,0.0
0,0,0,0,18138,26557,0,0,0.0,0.0,0.0,0.0
0,0,0,0,0,0,0,0,0.0,0.0,0.0,0.0
0,0,0,0,0,0,0,0,0.0,0.0,0.0,0.0
18146,26557,0,0,1,0,0,0,2.26825,3.3196250000000003,0.0,4.020555708247929
0,0,0,0,0,0,0,0,0.0,0.0,0.0,0.0
0,0,0,0,18203,26557,0,0,0.0,0.0,0.0,0.0
0,0,0,0,0,0,0,0,0.0,0.0,0.0,0.0
0,0,0,0,0,0,0,0,0.0,0.0,0.0,0.0
18211,26557,0,0,1,0,0,0,2.2763750000000003,3.3196250000000003,0.0,4.025145125489267
0,0,0,0,0,0,0,0,0.0,0.0,0.0,0.0
0,0,0,0,18268,26557,0,0,0.0,0.0,0.0,0.0
0,0,0,0,0,0,0,0,0.0,0.0,0.0,0.0
0,0,0,0,0,0,0,0,0.0,0.0,0.0,0.0
18276,26557,0,0,1,0,0,0,2.2845,3.3196250000000003,0.0,4.029745698009368
0,0,0,0,0,0,0,0,0.0,0.0,0.0,0.0
0,0,0,0,18332,26557,0,0,0.0,0.0,0.0,0.0
0,0,0,0,0,0,0,0,0.0,0.0,0.0,0.0
0,0,0,0,0,0,0,0,0.0,0.0,0.0,0.0
18341,26557,0,0,1,0,0,0,2.292625,3.3196250000000003,0.0,4.034357387645522
0,0,0,0,0,0,0,0,0.0,0.0,0.0,0.0
0,0,0,0,18397,26557,0,0,0.0,0.0,0.0,0.0
0,0,0,0,0,0,0,0,0.0,0.0,0.0,0.0
0,0,0,0,0,0,0,0,0.0,0.0,0.0,0.0
18406,26557,0,0,1,0,0,0,2.30075,3.3196250000000003,0.0,4.03898015631731
0,0,0,0,0,0,0,0,0.0,0.0,0.0,0.0
0,0,0,0,18462,26557,0,0,0.0,0.0,0.0,0.0
0,0,0,0,0,0,0,0,0.0,0.0,0.0,0.0
0,0,0,0,0,0,0,0,0.0,0.0,0.0,0.0
18470,26557,0,0,1,0,0,0,2.30875,3.3196250000000003,0.0,4.043542593212665
0,0,0,0,0,0,0,0,0.0,0.0,0.0,0.0
0,0,0,0,18527,26557,0,0,0.0,0.0,0.0,0.0
0,0,0,0,0,0,0,0,0.0,0.0,0.0,0.0
0,0,0,0,0,0,0,0,0.0,0.0,0.0,0.0
18535,26557,0,0,1,0,0,0,2.316875,3.3196250000000003,0.0,4.048187237054384
0,0,0,0,0,0,0,0,0.0,0.0,0.0,0.0
0,0,0,0,18592,26557,0,0,0.0,0.0,0.0,0.0
0,0,0,0,0,0,0,0,0.0,0.0,0.0,0.0
0,0,0,0,0,0,0,0,0.0,0.0,0.0,0.0
18600,26557,0,0,1,0,0,0,2.325,3.3196250000000003,0.0,4.052842846771264
0,0,0,0,0,0,0,0,0.0,0.0,0.0,0.0
0,0,0,0,18657,26557,0,0,0.0,0.0,0.0,0.0
0,0,0,0,0,0,0,0,0.0,0.0,0.0,0.0
0,0,0,0,0,0,0,0,0.0,0.0,0.0,0.0
18665,26557,0,0,1,0,0,0,2.333125,3.3196250000000003,0.0,4.057509384616381
0,0,0,0,0,0,0,0,0.0,0.0,0.0,0.0
0,0,0,0,18722,26557,0,0,0.0,0.0,0.0,0.0
0,0,0,0,0,0,0,0,0.0,0.0,0.0,0.0
0,0,0,0,0,0,0,0,0.0,0.0,0.0,0.0
18730,26557,0,0,1,0,0,0,2.34125,3.3196250000000003,0.0,4.06218681292786
0,0,0,0,0,0,0,0,0.0,0.0,0.0,0.0
0,0,0,0,18787,26557,0,0,0.0,0.0,0.0,0.0
0,0,0,0,0,0,0,0,0.0,0.0,0.0,0.0
0,0,0,0,0,0,0,0,0.0,0.0,0.0,0.0
18795,26557,0,0,1,0,0,0,2.349375,3.3196250000000003,0.0,4.066875094129399
0,0,0,0,0,0,0,0,0.0,0.0,0.0,0.0
0,0,0,0,18852,26557,0,0,0.0,0.0,0.0,0.0
0,0,0,0,0,0,0,0,0.0,0.0,0.0,0.0
0,0,0,0,0,0,0,0,0.0,0.0,0.0,0.0
18860,26557,0,0,1,0,0,0,2.3575,3.3196250000000003,0.0,4.07157419073078
0,0,0,0,0,0,0,0,0.0,0.0,0.0,0.0
0,0,0,0,18917,26557,0,0,0.0,0.0,0.0,0.0
0,0,0,0,0,0,0,0,0.0,0.0,0.0,0.0
0,0,0,0,0,0,0,0,0.0,0.0,0.0,0.0
18925,26557,0,0,1,0,0,0,2.365625,3.3196250000000003,0.0,4.076284065328372
0,0,0,0,0,0,0,0,0.0,0.0,0.0,0.0
0,0,0,0,18982,26557,0,0,0.0,0.0,0.0,0.0
0,0,0,0,0,0,0,0,0.0,0.0,0.0,0.0
0,0,0,0,0,0,0,0,0.0,0.0,0.0,0.0
18990,26557,0,0,1,0,0,0,2.3737500000000002,3.3196250000000003,0.0,4.081004680605623
0,0,0,0,0,0,0,0,0.0,0.0,0.0,0.0
0,0,0,0,19047,26557,0,0,0.0,0.0,0.0,0.0
0,0,0,0,0,0,0,0,0.0,0.0,0.0,0.0
0,0,0,0,0,0,0,0,0.0,0.0,0.0,0.0
19055,26557,0,0,1,0,0,0,2.381875,3.3196250000000003,0.0,4.085735999333536
0,0,0,0,0,0,0,0,0.0,0.0,0.0,0.0
0,0,0,0,19112,26557,0,0,0.0,0.0,0.0,0.0
0,0,0,0,0,0,0,0,0.0,0.0,0.0,0.0
0,0,0,0,0,0,0,0,0.0,0.0,0.0,0.0
19120,26557,0,0,1,0,0,0,2.39,3.3196250000000003,0.0,4.090477984371143
0,0,0,0,0,0,0,0,0.0,0.0,0.0,0.0
0,0,0,0,19177,26557,0,0,0.0,0.0,0.0,0.0
0,0,0,0,0,0,0,0,0.0,0.0,0.0,0.0
0,0,0,0,0,0,0,0,0.0,0.0,0.0,0.0
19185,26557,0,0,1,0,0,0,2.398125,3.3196250000000003,0.0,4.095230598665966
0,0,0,0,0,0,0,0,0.0,0.0,0.0,0.0
0,0,0,0,19242,26557,0,0,0.0,0.0,0.0,0.0
0,0,0,0,0,0,0,0,0.0,0.0,0.0,0.0
0,0,0,0,0,0,0,0,0.0,0.0,0.0,0.0
19250,26557,0,0,1,0,0,0,2.40625,3.3196250000000003,0.0,4.099993805254466
0,0,0,0,0,0,0,0,0.0,0.0,0.0,0.0
0,0,0,0,19307,26557,0,0,0.0,0.0,0.0,0.0
0,0,0,0,0,0,0,0,0.0,0.0,0.0,0.0
0,0,0,0,0,0,0,0,0.0,0.0,0.0,0.0
19315,26557,0,0,1,0,0,0,2.414375,3.3196250000000003,0.0,4.104767567262488
0,0,0,0,0,0,0,0,0.0,0.0,0.0,0.0
0,0,0,0,19372,26557,0,0,0.0,0.0,0.0,0.0
0,0,0,0,0,0,0,0,0.0,0.0,0.0,0.0
0,0,0,0,0,0,0,0,0.0,0.0,0.0,0.0
19380,26557,0,0,1,0,0,0,2.4225,3.3196250000000003,0.0,4.109551847905681
0,0,0,0,0,0,0,0,0.0,0.0,0.0,0.0
0,0,0,0,19436,26557,0,0,0.0,0.0,0.0,0.0
0,0,0,0,0,0,0,0,0.0,0.0,0.0,0.0
0,0,0,0,0,0,0,0,0.0,0.0,0.0,0.0
19445,26557,0,0,1,0,0,0,2.430625,3.3196250000000003,0.0,4.114346610489933
0,0,0,0,0,0,0,0,0.0,0.0,0.0,0.0
0,0,0,0,19501,26557,0,0,0.0,0.0,0.0,0.0
0,0,0,0,0,0,0,0,0.0,0.0,0.0,0.0
0,0,0,0,0,0,0,0,0.0,0.0,0.0,0.0
19509,26557,0,0,1,0,0,0,2.438625,3.3196250000000003,0.0,4.119077813206496
0,0,0,0,0,0,0,0,0.0,0.0,0.0,0.0
0,0,0,0,19566,26557,0,0,0.0,0.0,0.0,0.0
0,0,0,0,0,0,0,0,0.0,0.0,0.0,0.0
0,0,0,0,0,0,0,0,0.0,0.0,0.0,0.0
19574,26557,0,0,1,0,0,0,2.44675,3.3196250000000003,0.0,4.1238932700938085
0,0,0,0,0,0,0,0,0.0,0.0,0.0,0.0
0,0,0,0,19631,26557,0,0,0.0,0.0,0.0,0.0
0,0,0,0,0,0,0,0,0.0,0.0,0.0,0.0
0,0,0,0,0,0,0,0,0.0,0.0,0.0,0.0
19639,26557,0,0,1,0,0,0,2.454875,3.3196250000000003,0.0,4.128719099944921
0,0,0,0,0,0,0,0,0.0,0.0,0.0,0.0
0,0,0,0,19696,26557,0,0,0.0,0.0,0.0,0.0
0,0,0,0,0,0,0,0,0.0,0.0,0.0,0.0
0,0,0,0,0,0,0,0,0.0,0.0,0.0,0.0
19704,26557,0,0,1,0,0,0,2.463,3.3196250000000003,0.0,4.133555266429251
0,0,0,0,0,0,0,0,0.0,0.0,0.0,0.0
0,0,0,0,19761,26557,0,0,0.0,0.0,0.0,0.0
0,0,0,0,0,0,0,0,0.0,0.0,0.0,0.0
0,0,0,0,0,0,0,0,0.0,0.0,0.0,0.0
19769,26557,0,0,1,0,0,0,2.4711250000000002,3.3196250000000003,0.0,4.138401733308404
0,0,0,0,0,0,0,0,0.0,0.0,0.0,0.0
0,0,0,0,19826,26557,0,0,0.0,0.0,0.0,0.0
0,0,0,0,0,0,0,0,0.0,0.0,0.0,0.0
0,0,0,0,0,0,0,0,0.0,0.0,0.0,0.0
19834,26557,0,0,1,0,0,0,2.47925,3.3196250000000003,0.0,4.143258464436536
0,0,0,0,0,0,0,0,0.0,0.0,0.0,0.0
0,0,0,0,19891,26557,0,0,0.0,0.0,0.0,0.0
0,0,0,0,0,0,0,0,0.0,0.0,0.0,0.0
0,0,0,0,0,0,0,0,0.0,0.0,0.0,0.0
19899,26557,0,0,1,0,0,0,2.487375,3.3196250000000003,0.0,4.148125423760714
0,0,0,0,0,0,0,0,0.0,0.0,0.0,0.0
0,0,0,0,19956,26557,0,0,0.0,0.0,0.0,0.0
0,0,0,0,0,0,0,0,0.0,0.0,0.0,0.0
0,0,0,0,0,0,0,0,0.0,0.0,0.0,0.0
19964,26557,0,0,1,0,0,0,2.4955000000000003,3.3196250000000003,0.0,4.153002575321259
0,0,0,0,0,0,0,0,0.0,0.0,0.0,0.0
0,0,0,0,20021,26557,0,0,0.0,0.0,0.0,0.0
0,0,0,0,0,0,0,0,0.0,0.0,0.0,0.0
0,0,0,0,0,0,0,0,0.0,0.0,0.0,0.0
20029,26557,0,0,1,0,0,0,2.503625,3.3196250000000003,0.0,4.157889883252081
0,0,0,0,0,0,0,0,0.0,0.0,0.0,0.0
0,0,0,0,20086,26557,0,0,0.0,0.0,0.0,0.0
0,0,0,0,0,0,0,0,0.0,0.0,0.0,0.0
0,0,0,0,0,0,0,0,0.0,0.0,0.0,0.0
20094,26557,0,0,1,0,0,0,2.51175,3.3196250000000003,0.0,4.162787311781014
0,0,0,0,0,0,0,0,0.0,0.0,0.0,0.0
0,0,0,0,20151,26557,0,0,0.0,0.0,0.0,0.0
0,0,0,0,0,0,0,0,0.0,0.0,0.0,0.0
0,0,0,0,0,0,0,0,0.0,0.0,0.0,0.0
20159,26557,0,0,1,0,0,0,2.519875,3.3196250000000003,0.0,4.16769482523013
0,0,0,0,0,0,0,0,0.0,0.0,0.0,0.0
0,0,0,0,20216,26557,0,0,0.0,0.0,0.0,0.0
0,0,0,0,0,0,0,0,0.0,0.0,0.0,0.0
0,0,0,0,0,0,0,0,0.0,0.0,0.0,0.0
20224,26557,0,0,1,0,0,0,2.528,3.3196250000000003,0.0,4.17261238801605
0,0,0,0,0,0,0,0,0.0,0.0,0.0,0.0
0,0,0,0,20281,26557,0,0,0.0,0.0,0.0,0.0
0,0,0,0,0,0,0,0,0.0,0.0,0.0,0.0
0,0,0,0,0,0,0,0,0.0,0.0,0.0,0.0
20289,26557,0,0,1,0,0,0,2.536125,3.3196250000000003,0.0,4.177539964650249
0,0,0,0,0,0,0,0,0.0,0.0,0.0,0.0
0,0,0,0,20346,26557,0,0,0.0,0.0,0.0,0.0
0,0,0,0,0,0,0,0,0.0,0.0,0.0,0.0
0,0,0,0,0,0,0,0,0.0,0.0,0.0,0.0
20354,26557,0,0,1,0,0,0,2.54425,3.3196250000000003,0.0,4.182477519739347
0,0,0,0,0,0,0,0,0.0,0.0,0.0,0.0
0,0,0,0,20410,26557,0,0,0.0,0.0,0.0,0.0
0,0,0,0,0,0,0,0,0.0,0.0,0.0,0.0
0,0,0,0,0,0,0,0,0.0,0.0,0.0,0.0
20418,26557,0,0,1,0,0,0,2.55225,3.3196250000000003,0.0,4.18734882749515
0,0,0,0,0,0,0,0,0.0,0.0,0.0,0.0
0,0,0,0,20475,26557,0,0,0.0,0.0,0.0,0.0
0,0,0,0,0,0,0,0,0.0,0.0,0.0,0.0
0,0,0,0,0,0,0,0,0.0,0.0,0.0,0.0
20483,26557,0,0,1,0,0,0,2.560375,3.3196250000000003,0.0,4.192306081531978
0,0,0,0,0,0,0,0,0.0,0.0,0.0,0.0
0,0,0,0,20539,26557,0,0,0.0,0.0,0.0,0.0
0,0,0,0,0,0,0,0,0.0,0.0,0.0,0.0
0,0,0,0,0,0,0,0,0.0,0.0,0.0,0.0
20547,26557,0,0,1,0,0,0,2.568375,3.3196250000000003,0.0,4.1971967170064834
0,0,0,0,0,0,0,0,0.0,0.0,0.0,0.0
0,0,0,0,20604,26557,0,0,0.0,0.0,0.0,0.0
0,0,0,0,0,0,0,0,0.0,0.0,0.0,0.0
0,0,0,0,0,0,0,0,0.0,0.0,0.0,0.0
20612,26557,0,0,1,0,0,0,2.5765000000000002,3.3196250000000003,0.0,4.202173531712488
0,0,0,0,0,0,0,0,0.0,0.0,0.0,0.0
0,0,0,0,20668,26557,0,0,0.0,0.0,0.0,0.0
0,0,0,0,0,0,0,0,0.0,0.0,0.0,0.0
0,0,0,0,0,0,0,0,0.0,0.0,0.0,0.0
20676,26557,0,0,1,0,0,0,2.5845000000000002,3.3196250000000003,0.0,4.207083359124823
0,0,0,0,0,0,0,0,0.0,0.0,0.0,0.0
0,0,0,0,20733,26557,0,0,0.0,0.0,0.0,0.0
0,0,0,0,0,0,0,0,0.0,0.0,0.0,0.0
0,0,0,0,0,0,0,0,0.0,0.0,0.0,0.0
20741,26557,0,0,1,0,0,0,2.592625,3.3196250000000003,0.0,4.212079596974634
0,0,0,0,0,0,0,0,0.0,0.0,0.0,0.0
0,0,0,0,20797,26557,0,0,0.0,0.0,0.0,0.0
0,0,0,0,0,0,0,0,0.0,0.0,0.0,0.0
0,0,0,0,0,0,0,0,0.0,0.0,0.0,0.0
20805,26557,0,0,1,0,0,0,2.600625,3.3196250000000003,0.0,4.217008481287417
0,0,0,0,0,0,0,0,0.0,0.0,0.0,0.0
0,0,0,0,20862,26557,0,0,0.0,0.0,0.0,0.0
0,0,0,0,0,0,0,0,0.0,0.0,0.0,0.0
0,0,0,0,0,0,0,0,0.0,0.0,0.0,0.0
20870,26557,0,0,1,0,0,0,2.60875,3.3196250000000003,0.0,4.22202400551264
0,0,0,0,0,0,0,0,0.0,0.0,0.0,0.0
0,0,0,0,20926,26557,0,0,0.0,0.0,0.0,0.0
0,0,0,0,0,0,0,0,0.0,0.0,0.0,0.0
0,0,0,0,0,0,0,0,0.0,0.0,0.0,0.0
20934,26557,0,0,1,0,0,0,2.61675,3.3196250000000003,0.0,4.226971812435589
0,0,0,0,0,0,0,0,0.0,0.0,0.0,0.0
0,0,0,0,20991,26557,0,0,0.0,0.0,0.0,0.0
0,0,0,0,0,0,0,0,0.0,0.0,0.0,0.0
0,0,0,0,0,0,0,0,0.0,0.0,0.0,0.0
20999,26557,0,0,1,0,0,0,2.624875,3.3196250000000003,0.0,4.232006487028346
0,0,0,0,0,0,0,0,0.0,0.0,0.0,0.0
0,0,0,0,21055,26557,0,0,0.0,0.0,0.0,0.0
0,0,0,0,0,0,0,0,0.0,0.0,0.0,0.0
0,0,0,0,0,0,0,0,0.0,0.0,0.0,0.0
21063,26557,0,0,1,0,0,0,2.632875,3.3196250000000003,0.0,4.236973083021652
0,0,0,0,0,0,0,0,0.0,0.0,0.0,0.0
0,0,0,0,21120,26557,0,0,0.0,0.0,0.0,0.0
0,0,0,0,0,0,0,0,0.0,0.0,0.0,0.0
0,0,0,0,0,0,0,0,0.0,0.0,0.0,0.0
21128,26557,0,0,1,0,0,0,2.641,3.3196250000000003,0.0,4.242026772737886
0,0,0,0,0,0,0,0,0.0,0.0,0.0,0.0
0,0,0,0,21184,26557,0,0,0.0,0.0,0.0,0.0
0,0,0,0,0,0,0,0,0.0,0.0,0.0,0.0
0,0,0,0,0,0,0,0,0.0,0.0,0.0,0.0
21192,26557,0,0,1,0,0,0,2.649,3.3196250000000003,0.0,4.247012025015352
0,0,0,0,0,0,0,0,0.0,0.0,0.0,0.0
0,0,0,0,21249,26557,0,0,0.0,0.0,0.0,0.0
0,0,0,0,0,0,0,0,0.0,0.0,0.0,0.0
0,0,0,0,0,0,0,0,0.0,0.0,0.0,0.0
21257,26557,0,0,1,0,0,0,2.657125,3.3196250000000003,0.0,4.252084595377895
0,0,0,0,0,0,0,0,0.0,0.0,0.0,0.0
0,0,0,0,21313,26557,0,0,0.0,0.0,0.0,0.0
0,0,0,0,0,0,0,0,0.0,0.0,0.0,0.0
0,0,0,0,0,0,0,0,0.0,0.0,0.0,0.0
21321,26557,0,0,1,0,0,0,2.665125,3.3196250000000003,0.0,4.257088371909844
0,0,0,0,0,0,0,0,0.0,0.0,0.0,0.0
0,0,0,0,21378,26557,0,0,0.0,0.0,0.0,0.0
0,0,0,0,0,0,0,0,0.0,0.0,0.0,0.0
0,0,0,0,0,0,0,0,0.0,0.0,0.0,0.0
21386,26557,0,0,1,0,0,0,2.67325,3.3196250000000003,0.0,4.262179689211261
0,0,0,0,0,0,0,0,0.0,0.0,0.0,0.0
0,0,0,0,21442,26557,0,0,0.0,0.0,0.0,0.0
0,0,0,0,0,0,0,0,0.0,0.0,0.0,0.0
0,0,0,0,0,0,0,0,0.0,0.0,0.0,0.0
21450,26557,0,0,1,0,0,0,2.68125,3.3196250000000003,0.0,4.267201858727216
0,0,0,0,0,0,0,0,0.0,0.0,0.0,0.0
0,0,0,0,21507,26557,0,0,0.0,0.0,0.0,0.0
0,0,0,0,0,0,0,0,0.0,0.0,0.0,0.0
0,0,0,0,0,0,0,0,0.0,0.0,0.0,0.0
21515,26557,0,0,1,0,0,0,2.689375,3.3196250000000003,0.0,4.272311790032418
0,0,0,0,0,0,0,0,0.0,0.0,0.0,0.0
0,0,0,0,21571,26557,0,0,0.0,0.0,0.0,0.0
0,0,0,0,0,0,0,0,0.0,0.0,0.0,0.0
0,0,0,0,0,0,0,0,0.0,0.0,0.0,0.0
21580,26557,0,0,1,0,0,0,2.6975000000000002,3.3196250000000003,0.0,4.27743105036481
0,0,0,0,0,0,0,0,0.0,0.0,0.0,0.0
0,0,0,0,21636,26557,0,0,0.0,0.0,0.0,0.0
0,0,0,0,0,0,0,0,0.0,0.0,0.0,0.0
0,0,0,0,0,0,0,0,0.0,0.0,0.0,0.0
21644,26557,0,0,1,0,0,0,2.7055000000000002,3.3196250000000003,0.0,4.282480635172213
0,0,0,0,0,0,0,0,0.0,0.0,0.0,0.0
0,0,0,0,21701,26557,0,0,0.0,0.0,0.0,0.0
0,0,0,0,0,0,0,0,0.0,0.0,0.0,0.0
0,0,0,0,0,0,0,0,0.0,0.0,0.0,0.0
21709,26557,0,0,1,0,0,0,2.713625,3.3196250000000003,0.0,4.2876183110498545
0,0,0,0,0,0,0,0,0.0,0.0,0.0,0.0
0,0,0,0,21766,26557,0,0,0.0,0.0,0.0,0.0
0,0,0,0,0,0,0,0,0.0,0.0,0.0,0.0
0,0,0,0,0,0,0,0,0.0,0.0,0.0,0.0
21774,26557,0,0,1,0,0,0,2.72175,3.3196250000000003,0.0,4.2927652163989825
0,0,0,0,0,0,0,0,0.0,0.0,0.0,0.0
0,0,0,0,21831,26557,0,0,0.0,0.0,0.0,0.0
0,0,0,0,0,0,0,0,0.0,0.0,0.0,0.0
0,0,0,0,0,0,0,0,0.0,0.0,0.0,0.0
21839,26557,0,0,1,0,0,0,2.7298750000000003,3.3196250000000003,0.0,4.297921318061791
0,0,0,0,0,0,0,0,0.0,0.0,0.0,0.0
0,0,0,0,21896,26557,0,0,0.0,0.0,0.0,0.0
0,0,0,0,0,0,0,0,0.0,0.0,0.0,0.0
0,0,0,0,0,0,0,0,0.0,0.0,0.0,0.0
21904,26557,0,0,1,0,0,0,2.738,3.3196250000000003,0.0,4.303086582980292
0,0,0,0,0,0,0,0,0.0,0.0,0.0,0.0
0,0,0,0,21960,26557,0,0,0.0,0.0,0.0,0.0
0,0,0,0,0,0,0,0,0.0,0.0,0.0,0.0
0,0,0,0,0,0,0,0,0.0,0.0,0.0,0.0
21968,26557,0,0,1,0,0,0,2.746,3.3196250000000003,0.0,4.308181303128387
0,0,0,0,0,0,0,0,0.0,0.0,0.0,0.0
0,0,0,0,22025,26557,0,0,0.0,0.0,0.0,0.0
0,0,0,0,0,0,0,0,0.0,0.0,0.0,0.0
0,0,0,0,0,0,0,0,0.0,0.0,0.0,0.0
22033,26557,0,0,1,0,0,0,2.754125,3.3196250000000003,0.0,4.31336465607187
0,0,0,0,0,0,0,0,0.0,0.0,0.0,0.0
0,0,0,0,22089,26557,0,0,0.0,0.0,0.0,0.0
0,0,0,0,0,0,0,0,0.0,0.0,0.0,0.0
0,0,0,0,0,0,0,0,0.0,0.0,0.0,0.0
22097,26557,0,0,1,0,0,0,2.762125,3.3196250000000003,0.0,4.318477122348804
0,0,0,0,0,0,0,0,0.0,0.0,0.0,0.0
0,0,0,0,22154,26557,0,0,0.0,0.0,0.0,0.0
0,0,0,0,0,0,0,0,0.0,0.0,0.0,0.0
0,0,0,0,0,0,0,0,0.0,0.0,0.0,0.0
22162,26557,0,0,1,0,0,0,2.77025,3.3196250000000003,0.0,4.3236784342877534
0,0,0,0,0,0,0,0,0.0,0.0,0.0,0.0
0,0,0,0,22218,26557,0,0,0.0,0.0,0.0,0.0
0,0,0,0,0,0,0,0,0.0,0.0,0.0,0.0
0,0,0,0,0,0,0,0,0.0,0.0,0.0,0.0
22226,26557,0,0,1,0,0,0,2.77825,3.3196250000000003,0.0,4.328808520034699
0,0,0,0,0,0,0,0,0.0,0.0,0.0,0.0
0,0,0,0,22283,26557,0,0,0.0,0.0,0.0,0.0
0,0,0,0,0,0,0,0,0.0,0.0,0.0,0.0
0,0,0,0,0,0,0,0,0.0,0.0,0.0,0.0
22291,26557,0,0,1,0,0,0,2.786375,3.3196250000000003,0.0,4.3340276627232095
0,0,0,0,0,0,0,0,0.0,0.0,0.0,0.0
0,0,0,0,22348,26557,0,0,0.0,0.0,0.0,0.0
0,0,0,0,0,0,0,0,0.0,0.0,0.0,0.0
0,0,0,0,0,0,0,0,0.0,0.0,0.0,0.0
22356,26557,0,0,1,0,0,0,2.7945,3.3196250000000003,0.0,4.339255741555803
0,0,0,0,0,0,0,0,0.0,0.0,0.0,0.0
0,0,0,0,22412,26557,0,0,0.0,0.0,0.0,0.0
0,0,0,0,0,0,0,0,0.0,0.0,0.0,0.0
0,0,0,0,0,0,0,0,0.0,0.0,0.0,0.0
22420,26557,0,0,1,0,0,0,2.8025,3.3196250000000003,0.0,4.34441208803044
0,0,0,0,0,0,0,0,0.0,0.0,0.0,0.0
0,0,0,0,22477,26557,0,0,0.0,0.0,0.0,0.0
0,0,0,0,0,0,0,0,0.0,0.0,0.0,0.0
0,0,0,0,0,0,0,0,0.0,0.0,0.0,0.0
22485,26557,0,0,1,0,0,0,2.810625,3.3196250000000003,0.0,4.349657806224531
0,0,0,0,0,0,0,0,0.0,0.0,0.0,0.0
0,0,0,0,22542,26557,0,0,0.0,0.0,0.0,0.0
0,0,0,0,0,0,0,0,0.0,0.0,0.0,0.0
0,0,0,0,0,0,0,0,0.0,0.0,0.0,0.0
22550,26557,0,0,1,0,0,0,2.81875,3.3196250000000003,0.0,4.354912364574631
0,0,0,0,0,0,0,0,0.0,0.0,0.0,0.0
0,0,0,0,22606,26557,0,0,0.0,0.0,0.0,0.0
0,0,0,0,0,0,0,0,0.0,0.0,0.0,0.0
0,0,0,0,0,0,0,0,0.0,0.0,0.0,0.0
22614,26557,0,0,1,0,0,0,2.82675,3.3196250000000003,0.0,4.360094689697117
0,0,0,0,0,0,0,0,0.0,0.0,0.0,0.0
0,0,0,0,22670,26557,0,0,0.0,0.0,0.0,0.0
0,0,0,0,0,0,0,0,0.0,0.0,0.0,0.0
0,0,0,0,0,0,0,0,0.0,0.0,0.0,0.0
22679,26557,0,0,1,0,0,0,2.8348750000000003,3.3196250000000003,0.0,4.365366697798709
0,0,0,0,0,0,0,0,0.0,0.0,0.0,0.0
0,0,0,0,22735,26557,0,0,0.0,0.0,0.0,0.0
0,0,0,0,0,0,0,0,0.0,0.0,0.0,0.0
0,0,0,0,0,0,0,0,0.0,0.0,0.0,0.0
22743,26557,0,0,1,0,0,0,2.8428750000000003,3.3196250000000003,0.0,4.370566142532339
0,0,0,0,0,0,0,0,0.0,0.0,0.0,0.0
0,0,0,0,22800,26557,0,0,0.0,0.0,0.0,0.0
0,0,0,0,0,0,0,0,0.0,0.0,0.0,0.0
0,0,0,0,0,0,0,0,0.0,0.0,0.0,0.0
22808,26557,0,0,1,0,0,0,2.851,3.3196250000000003,0.0,4.375855475289947
0,0,0,0,0,0,0,0,0.0,0.0,0.0,0.0
0,0,0,0,22864,26557,0,0,0.0,0.0,0.0,0.0
0,0,0,0,0,0,0,0,0.0,0.0,0.0,0.0
0,0,0,0,0,0,0,0,0.0,0.0,0.0,0.0
22872,26557,0,0,1,0,0,0,2.859,3.3196250000000003,0.0,4.381071916851514
0,0,0,0,0,0,0,0,0.0,0.0,0.0,0.0
0,0,0,0,22929,26557,0,0,0.0,0.0,0.0,0.0
0,0,0,0,0,0,0,0,0.0,0.0,0.0,0.0
0,0,0,0,0,0,0,0,0.0,0.0,0.0,0.0
22937,26557,0,0,1,0,0,0,2.867125,3.3196250000000003,0.0,4.386378449957323
0,0,0,0,0,0,0,0,0.0,0.0,0.0,0.0
0,0,0,0,22993,26557,0,0,0.0,0.0,0.0,0.0
0,0,0,0,0,0,0,0,0.0,0.0,0.0,0.0
0,0,0,0,0,0,0,0,0.0,0.0,0.0,0.0
23001,26557,0,0,1,0,0,0,2.875125,3.3196250000000003,0.0,4.391611766339325
0,0,0,0,0,0,0,0,0.0,0.0,0.0,0.0
0,0,0,0,23058,26557,0,0,0.0,0.0,0.0,0.0
0,0,0,0,0,0,0,0,0.0,0.0,0.0,0.0
0,0,0,0,0,0,0,0,0.0,0.0,0.0,0.0
23066,26557,0,0,1,0,0,0,2.88325,3.3196250000000003,0.0,4.396935376273456
0,0,0,0,0,0,0,0,0.0,0.0,0.0,0.0
0,0,0,0,23122,26557,0,0,0.0,0.0,0.0,0.0
0,0,0,0,0,0,0,0,0.0,0.0,0.0,0.0
0,0,0,0,0,0,0,0,0.0,0.0,0.0,0.0
23130,26557,0,0,1,0,0,0,2.89125,3.3196250000000003,0.0,4.402185446244286
0,0,0,0,0,0,0,0,0.0,0.0,0.0,0.0
0,0,0,0,23187,26557,0,0,0.0,0.0,0.0,0.0
0,0,0,0,0,0,0,0,0.0,0.0,0.0,0.0
0,0,0,0,0,0,0,0,0.0,0.0,0.0,0.0
23195,26557,0,0,1,0,0,0,2.899375,3.3196250000000003,0.0,4.407526010274926
0,0,0,0,0,0,0,0,0.0,0.0,0.0,0.0
0,0,0,0,23251,26557,0,0,0.0,0.0,0.0,0.0
0,0,0,0,0,0,0,0,0.0,0.0,0.0,0.0
0,0,0,0,0,0,0,0,0.0,0.0,0.0,0.0
23259,26557,0,0,1,0,0,0,2.907375,3.3196250000000003,0.0,4.41279271337891
0,0,0,0,0,0,0,0,0.0,0.0,0.0,0.0
0,0,0,0,23316,26557,0,0,0.0,0.0,0.0,0.0
0,0,0,0,0,0,0,0,0.0,0.0,0.0,0.0
0,0,0,0,0,0,0,0,0.0,0.0,0.0,0.0
23324,26557,0,0,1,0,0,0,2.9155,3.3196250000000003,0.0,4.4181501095622595
0,0,0,0,0,0,0,0,0.0,0.0,0.0,0.0
0,0,0,0,23380,26557,0,0,0.0,0.0,0.0,0.0
0,0,0,0,0,0,0,0,0.0,0.0,0.0,0.0
0,0,0,0,0,0,0,0,0.0,0.0,0.0,0.0
23388,26557,0,0,1,0,0,0,2.9235,3.3196250000000003,0.0,4.423433326119543
0,0,0,0,0,0,0,0,0.0,0.0,0.0,0.0
0,0,0,0,23445,26557,0,0,0.0,0.0,0.0,0.0
0,0,0,0,0,0,0,0,0.0,0.0,0.0,0.0
0,0,0,0,0,0,0,0,0.0,0.0,0.0,0.0
23453,26557,0,0,1,0,0,0,2.931625,3.3196250000000003,0.0,4.428807433299624
0,0,0,0,0,0,0,0,0.0,0.0,0.0,0.0
0,0,0,0,23509,26557,0,0,0.0,0.0,0.0,0.0
0,0,0,0,0,0,0,0,0.0,0.0,0.0,0.0
0,0,0,0,0,0,0,0,0.0,0.0,0.0,0.0
23517,26557,0,0,1,0,0,0,2.939625,3.3196250000000003,0.0,4.434107044405898
0,0,0,0,0,0,0,0,0.0,0.0,0.0,0.0
0,0,0,0,23574,26557,0,0,0.0,0.0,0.0,0.0
0,0,0,0,0,0,0,0,0.0,0.0,0.0,0.0
0,0,0,0,0,0,0,0,0.0,0.0,0.0,0.0
23582,26557,0,0,1,0,0,0,2.94775,3.3196250000000003,0.0,4.439497742214202
0,0,0,0,0,0,0,0,0.0,0.0,0.0,0.0
0,0,0,0,23638,26557,0,0,0.0,0.0,0.0,0.0
0,0,0,0,0,0,0,0,0.0,0.0,0.0,0.0
0,0,0,0,0,0,0,0,0.0,0.0,0.0,0.0
23646,26557,0,0,1,0,0,0,2.95575,3.3196250000000003,0.0,4.444813629740285
0,0,0,0,0,0,0,0,0.0,0.0,0.0,0.0
0,0,0,0,23703,26557,0,0,0.0,0.0,0.0,0.0
0,0,0,0,0,0,0,0,0.0,0.0,0.0,0.0
0,0,0,0,0,0,0,0,0.0,0.0,0.0,0.0
23711,26557,0,0,1,0,0,0,2.9638750000000003,3.3196250000000003,0.0,4.4502207985952795
0,0,0,0,0,0,0,0,0.0,0.0,0.0,0.0
0,0,0,0,23768,26557,0,0,0.0,0.0,0.0,0.0
0,0,0,0,0,0,0,0,0.0,0.0,0.0,0.0
0,0,0,0,0,0,0,0,0.0,0.0,0.0,0.0
23776,26557,0,0,1,0,0,0,2.972,3.3196250000000003,0.0,4.455636221756103
0,0,0,0,0,0,0,0,0.0,0.0,0.0,0.0
0,0,0,0,23833,26557,0,0,0.0,0.0,0.0,0.0
0,0,0,0,0,0,0,0,0.0,0.0,0.0,0.0
0,0,0,0,0,0,0,0,0.0,0.0,0.0,0.0
23841,26557,0,0,1,0,0,0,2.980125,3.3196250000000003,0.0,4.46105986916226
0,0,0,0,0,0,0,0,0.0,0.0,0.0,0.0
0,0,0,0,23898,26557,0,0,0.0,0.0,0.0,0.0
0,0,0,0,0,0,0,0,0.0,0.0,0.0,0.0
0,0,0,0,0,0,0,0,0.0,0.0,0.0,0.0
23906,26557,0,0,1,0,0,0,2.98825,3.3196250000000003,0.0,4.466491710853721
0,0,0,0,0,0,0,0,0.0,0.0,0.0,0.0
0,0,0,0,23963,26557,0,0,0.0,0.0,0.0,0.0
0,0,0,0,0,0,0,0,0.0,0.0,0.0,0.0
0,0,0,0,0,0,0,0,0.0,0.0,0.0,0.0
23971,26557,0,0,1,0,0,0,2.996375,3.3196250000000003,0.0,4.471931716970866
0,0,0,0,0,0,0,0,0.0,0.0,0.0,0.0
0,0,0,0,24028,26557,0,0,0.0,0.0,0.0,0.0
0,0,0,0,0,0,0,0,0.0,0.0,0.0,0.0
0,0,0,0,0,0,0,0,0.0,0.0,0.0,0.0
24036,26557,0,0,1,0,0,0,3.0045,3.3196250000000003,0.0,4.477379857754421
0,0,0,0,0,0,0,0,0.0,0.0,0.0,0.0
0,0,0,0,24093,26557,0,0,0.0,0.0,0.0,0.0
0,0,0,0,0,0,0,0,0.0,0.0,0.0,0.0
0,0,0,0,0,0,0,0,0.0,0.0,0.0,0.0
24101,26557,0,0,1,0,0,0,3.012625,3.3196250000000003,0.0,4.482836103545388
0,0,0,0,0,0,0,0,0.0,0.0,0.0,0.0
0,0,0,0,24158,26557,0,0,0.0,0.0,0.0,0.0
0,0,0,0,0,0,0,0,0.0,0.0,0.0,0.0
0,0,0,0,0,0,0,0,0.0,0.0,0.0,0.0
24166,26557,0,0,1,0,0,0,3.02075,3.3196250000000003,0.0,4.488300424784977
0,0,0,0,0,0,0,0,0.0,0.0,0.0,0.0
0,0,0,0,24222,26557,0,0,0.0,0.0,0.0,0.0
0,0,0,0,0,0,0,0,0.0,0.0,0.0,0.0
0,0,0,0,0,0,0,0,0.0,0.0,0.0,0.0
24231,26557,0,0,1,0,0,0,3.028875,3.3196250000000003,0.0,4.493772792014523
0,0,0,0,0,0,0,0,0.0,0.0,0.0,0.0
0,0,0,0,24287,26557,0,0,0.0,0.0,0.0,0.0
0,0,0,0,0,0,0,0,0.0,0.0,0.0,0.0
0,0,0,0,0,0,0,0,0.0,0.0,0.0,0.0
24296,26557,0,0,1,0,0,0,3.037,3.3196250000000003,0.0,4.499253175875414
0,0,0,0,0,0,0,0,0.0,0.0,0.0,0.0
0,0,0,0,24352,26557,0,0,0.0,0.0,0.0,0.0
0,0,0,0,0,0,0,0,0.0,0.0,0.0,0.0
0,0,0,0,0,0,0,0,0.0,0.0,0.0,0.0
24361,26557,0,0,1,0,0,0,3.045125,3.3196250000000003,0.0,4.504741547109002
0,0,0,0,0,0,0,0,0.0,0.0,0.0,0.0
0,0,0,0,24417,26557,0,0,0.0,0.0,0.0,0.0
0,0,0,0,0,0,0,0,0.0,0.0,0.0,0.0
0,0,0,0,0,0,0,0,0.0,0.0,0.0,0.0
24425,26557,0,0,1,0,0,0,3.053125,3.3196250000000003,0.0,4.510153257512432
0,0,0,0,0,0,0,0,0.0,0.0,0.0,0.0
0,0,0,0,24482,26557,0,0,0.0,0.0,0.0,0.0
0,0,0,0,0,0,0,0,0.0,0.0,0.0,0.0
0,0,0,0,0,0,0,0,0.0,0.0,0.0,0.0
24491,26557,0,0,1,0,0,0,3.061375,3.3196250000000003,0.0,4.51574213515896
0,0,0,0,0,0,0,0,0.0,0.0,0.0,0.0
0,0,0,0,24547,26557,0,0,0.0,0.0,0.0,0.0
0,0,0,0,0,0,0,0,0.0,0.0,0.0,0.0
0,0,0,0,0,0,0,0,0.0,0.0,0.0,0.0
24555,26557,0,0,1,0,0,0,3.069375,3.3196250000000003,0.0,4.521169431822922
0,0,0,0,0,0,0,0,0.0,0.0,0.0,0.0
0,0,0,0,24612,26557,0,0,0.0,0.0,0.0,0.0
0,0,0,0,0,0,0,0,0.0,0.0,0.0,0.0
0,0,0,0,0,0,0,0,0.0,0.0,0.0,0.0
24620,26557,0,0,1,0,0,0,3.0775,3.3196250000000003,0.0,4.526689341077539
0,0,0,0,0,0,0,0,0.0,0.0,0.0,0.0
0,0,0,0,24677,26557,0,0,0.0,0.0,0.0,0.0
0,0,0,0,0,0,0,0,0.0,0.0,0.0,0.0
0,0,0,0,0,0,0,0,0.0,0.0,0.0,0.0
24685,26557,0,0,1,0,0,0,3.0856250000000003,3.3196250000000003,0.0,4.532217093349568
0,0,0,0,0,0,0,0,0.0,0.0,0.0,0.0
0,0,0,0,24741,26557,0,0,0.0,0.0,0.0,0.0
0,0,0,0,0,0,0,0,0.0,0.0,0.0,0.0
0,0,0,0,0,0,0,0,0.0,0.0,0.0,0.0
24749,26557,0,0,1,0,0,0,3.093625,3.3196250000000003,0.0,4.537667438370732
0,0,0,0,0,0,0,0,0.0,0.0,0.0,0.0
0,0,0,0,24806,26557,0,0,0.0,0.0,0.0,0.0
0,0,0,0,0,0,0,0,0.0,0.0,0.0,0.0
0,0,0,0,0,0,0,0,0.0,0.0,0.0,0.0
24814,26557,0,0,1,0,0,0,3.10175,3.3196250000000003,0.0,4.543210671224151
0,0,0,0,0,0,0,0,0.0,0.0,0.0,0.0
0,0,0,0,24870,26557,0,0,0.0,0.0,0.0,0.0
0,0,0,0,0,0,0,0,0.0,0.0,0.0,0.0
0,0,0,0,0,0,0,0,0.0,0.0,0.0,0.0
24878,26557,0,0,1,0,0,0,3.10975,3.3196250000000003,0.0,4.548676203372252
0,0,0,0,0,0,0,0,0.0,0.0,0.0,0.0
0,0,0,0,24935,26557,0,0,0.0,0.0,0.0,0.0
0,0,0,0,0,0,0,0,0.0,0.0,0.0,0.0
0,0,0,0,0,0,0,0,0.0,0.0,0.0,0.0
24943,26557,0,0,1,0,0,0,3.117875,3.3196250000000003,0.0,4.554234804690027
0,0,0,0,0,0,0,0,0.0,0.0,0.0,0.0
0,0,0,0,24999,26557,0,0,0.0,0.0,0.0,0.0
0,0,0,0,0,0,0,0,0.0,0.0,0.0,0.0
0,0,0,0,0,0,0,0,0.0,0.0,0.0,0.0
25008,26557,0,0,1,0,0,0,3.126,3.3196250000000003,0.0,4.559801107573114
0,0,0,0,0,0,0,0,0.0,0.0,0.0,0.0
0,0,0,0,25064,26557,0,0,0.0,0.0,0.0,0.0
0,0,0,0,0,0,0,0,0.0,0.0,0.0,0.0
0,0,0,0,0,0,0,0,0.0,0.0,0.0,0.0
25072,26557,0,0,1,0,0,0,3.134,3.3196250000000003,0.0,4.565289272392824
0,0,0,0,0,0,0,0,0.0,0.0,0.0,0.0
0,0,0,0,25128,26557,0,0,0.0,0.0,0.0,0.0
0,0,0,0,0,0,0,0,0.0,0.0,0.0,0.0
0,0,0,0,0,0,0,0,0.0,0.0,0.0,0.0
25137,26557,0,0,1,0,0,0,3.142125,3.3196250000000003,0.0,4.57087077658623
0,0,0,0,0,0,0,0,0.0,0.0,0.0,0.0
0,0,0,0,25193,26557,0,0,0.0,0.0,0.0,0.0
0,0,0,0,0,0,0,0,0.0,0.0,0.0,0.0
0,0,0,0,0,0,0,0,0.0,0.0,0.0,0.0
25201,26557,0,0,1,0,0,0,3.150125,3.3196250000000003,0.0,4.576373854510797
0,0,0,0,0,0,0,0,0.0,0.0,0.0,0.0
0,0,0,0,25258,26557,0,0,0.0,0.0,0.0,0.0
0,0,0,0,0,0,0,0,0.0,0.0,0.0,0.0
0,0,0,0,0,0,0,0,0.0,0.0,0.0,0.0
25266,26557,0,0,1,0,0,0,3.1582500000000002,3.3196250000000003,0.0,4.581970449831055
0,0,0,0,0,0,0,0,0.0,0.0,0.0,0.0
0,0,0,0,25322,26557,0,0,0.0,0.0,0.0,0.0
0,0,0,0,0,0,0,0,0.0,0.0,0.0,0.0
0,0,0,0,0,0,0,0,0.0,0.0,0.0,0.0
25330,26557,0,0,1,0,0,0,3.1662500000000002,3.3196250000000003,0.0,4.587488332750832
0,0,0,0,0,0,0,0,0.0,0.0,0.0,0.0
0,0,0,0,25387,26557,0,0,0.0,0.0,0.0,0.0
0,0,0,0,0,0,0,0,0.0,0.0,0.0,0.0
0,0,0,0,0,0,0,0,0.0,0.0,0.0,0.0
25395,26557,0,0,1,0,0,0,3.174375,3.3196250000000003,0.0,4.593099909783152
0,0,0,0,0,0,0,0,0.0,0.0,0.0,0.0
0,0,0,0,25451,26557,0,0,0.0,0.0,0.0,0.0
0,0,0,0,0,0,0,0,0.0,0.0,0.0,0.0
0,0,0,0,0,0,0,0,0.0,0.0,0.0,0.0
25459,26557,0,0,1,0,0,0,3.182375,3.3196250000000003,0.0,4.598632490344277
0,0,0,0,0,0,0,0,0.0,0.0,0.0,0.0
0,0,0,0,25516,26557,0,0,0.0,0.0,0.0,0.0
0,0,0,0,0,0,0,0,0.0,0.0,0.0,0.0
0,0,0,0,0,0,0,0,0.0,0.0,0.0,0.0
25524,26557,0,0,1,0,0,0,3.1905,3.3196250000000003,0.0,4.604258940440362
0,0,0,0,0,0,0,0,0.0,0.0,0.0,0.0
0,0,0,0,25580,26557,0,0,0.0,0.0,0.0,0.0
0,0,0,0,0,0,0,0,0.0,0.0,0.0,0.0
0,0,0,0,0,0,0,0,0.0,0.0,0.0,0.0
25588,26557,0,0,1,0,0,0,3.1985,3.3196250000000003,0.0,4.609806112042567
0,0,0,0,0,0,0,0,0.0,0.0,0.0,0.0
0,0,0,0,25645,26557,0,0,0.0,0.0,0.0,0.0
0,0,0,0,0,0,0,0,0.0,0.0,0.0,0.0
0,0,0,0,0,0,0,0,0.0,0.0,0.0,0.0
25653,26557,0,0,1,0,0,0,3.2066250000000003,3.3196250000000003,0.0,4.61544732731834
0,0,0,0,0,0,0,0,0.0,0.0,0.0,0.0
0,0,0,0,25709,26557,0,0,0.0,0.0,0.0,0.0
0,0,0,0,0,0,0,0,0.0,0.0,0.0,0.0
0,0,0,0,0,0,0,0,0.0,0.0,0.0,0.0
25717,26557,0,0,1,0,0,0,3.2146250000000003,3.3196250000000003,0.0,4.621008984112669
0,0,0,0,0,0,0,0,0.0,0.0,0.0,0.0
0,0,0,0,25774,26557,0,0,0.0,0.0,0.0,0.0
0,0,0,0,0,0,0,0,0.0,0.0,0.0,0.0
0,0,0,0,0,0,0,0,0.0,0.0,0.0,0.0
25782,26557,0,0,1,0,0,0,3.22275,3.3196250000000003,0.0,4.626664857445912
0,0,0,0,0,0,0,0,0.0,0.0,0.0,0.0
0,0,0,0,25838,26557,0,0,0.0,0.0,0.0,0.0
0,0,0,0,0,0,0,0,0.0,0.0,0.0,0.0
0,0,0,0,0,0,0,0,0.0,0.0,0.0,0.0
25847,26557,0,0,1,0,0,0,3.230875,3.3196250000000003,0.0,4.632328076275471
0,0,0,0,0,0,0,0,0.0,0.0,0.0,0.0
0,0,0,0,25903,26557,0,0,0.0,0.0,0.0,0.0
0,0,0,0,0,0,0,0,0.0,0.0,0.0,0.0
0,0,0,0,0,0,0,0,0.0,0.0,0.0,0.0
25912,26557,0,0,1,0,0,0,3.239,3.3196250000000003,0.0,4.637998613693735
0,0,0,0,0,0,0,0,0.0,0.0,0.0,0.0
0,0,0,0,25968,26557,0,0,0.0,0.0,0.0,0.0
0,0,0,0,0,0,0,0,0.0,0.0,0.0,0.0
0,0,0,0,0,0,0,0,0.0,0.0,0.0,0.0
25976,26557,0,0,1,0,0,0,3.247,3.3196250000000003,0.0,4.643589036577742
0,0,0,0,0,0,0,0,0.0,0.0,0.0,0.0
0,0,0,0,26033,26557,0,0,0.0,0.0,0.0,0.0
0,0,0,0,0,0,0,0,0.0,0.0,0.0,0.0
0,0,0,0,0,0,0,0,0.0,0.0,0.0,0.0
26041,26557,0,0,1,0,0,0,3.255125,3.3196250000000003,0.0,4.64927401926903
0,0,0,0,0,0,0,0,0.0,0.0,0.0,0.0
0,0,0,0,26098,26557,0,0,0.0,0.0,0.0,0.0
0,0,0,0,0,0,0,0,0.0,0.0,0.0,0.0
0,0,0,0,0,0,0,0,0.0,0.0,0.0,0.0
26106,26557,0,0,1,0,0,0,3.26325,3.3196250000000003,0.0,4.65496624081475
0,0,0,0,0,0,0,0,0.0,0.0,0.0,0.0
0,0,0,0,26163,26557,0,0,0.0,0.0,0.0,0.0
0,0,0,0,0,0,0,0,0.0,0.0,0.0,0.0
0,0,0,0,0,0,0,0,0.0,0.0,0.0,0.0
26171,26557,0,0,1,0,0,0,3.271375,3.3196250000000003,0.0,4.66066567469176
0,0,0,0,0,0,0,0,0.0,0.0,0.0,0.0
0,0,0,0,26228,26557,0,0,0.0,0.0,0.0,0.0
0,0,0,0,0,0,0,0,0.0,0.0,0.0,0.0
0,0,0,0,0,0,0,0,0.0,0.0,0.0,0.0
26236,26557,0,0,1,0,0,0,3.2795,3.3196250000000003,0.0,4.666372294472978
0,0,0,0,0,0,0,0,0.0,0.0,0.0,0.0
0,0,0,0,26293,26557,0,0,0.0,0.0,0.0,0.0
0,0,0,0,0,0,0,0,0.0,0.0,0.0,0.0
0,0,0,0,0,0,0,0,0.0,0.0,0.0,0.0
26301,26557,0,0,1,0,0,0,3.2876250000000002,3.3196250000000003,0.0,4.672086073827194
0,0,0,0,0,0,0,0,0.0,0.0,0.0,0.0
0,0,0,0,26358,26557,0,0,0.0,0.0,0.0,0.0
0,0,0,0,0,0,0,0,0.0,0.0,0.0,0.0
0,0,0,0,0,0,0,0,0.0,0.0,0.0,0.0
26366,26557,0,0,1,0,0,0,3.29575,3.3196250000000003,0.0,4.677806986518897
0,0,0,0,0,0,0,0,0.0,0.0,0.0,0.0
0,0,0,0,26423,26557,0,0,0.0,0.0,0.0,0.0
0,0,0,0,0,0,0,0,0.0,0.0,0.0,0.0
0,0,0,0,0,0,0,0,0.0,0.0,0.0,0.0
26431,26557,0,0,1,0,0,0,3.303875,3.3196250000000003,0.0,4.683535006408087
0,0,0,0,0,0,0,0,0.0,0.0,0.0,0.0
0,0,0,0,26488,26557,0,0,0.0,0.0,0.0,0.0
0,0,0,0,0,0,0,0,0.0,0.0,0.0,0.0
0,0,0,0,0,0,0,0,0.0,0.0,0.0,0.0
26496,26557,0,0,1,0,0,0,3.3120000000000003,3.3196250000000003,0.0,4.689270107450093
0,0,0,0,0,0,0,0,0.0,0.0,0.0,0.0
0,0,0,0,26553,26557,0,0,0.0,0.0,0.0,0.0
0,0,0,0,0,0,0,0,0.0,0.0,0.0,0.0
0,0,0,0,0,0,0,0,0.0,0.0,0.0,0.0
26561,26557,0,0,1,0,0,0,3.320125,3.3196250000000003,0.0,4.695012263695379
0,0,0,0,0,0,0,0,0.0,0.0,0.0,0.0
0,0,0,0,26618,26557,0,0,0.0,0.0,0.0,0.0
0,0,0,0,0,0,0,0,0.0,0.0,0.0,0.0
0,0,0,0,0,0,0,0,0.0,0.0,0.0,0.0
26626,26557,0,0,1,0,0,0,3.32825,3.3196250000000003,0.0,4.70076144928936
0,0,0,0,0,0,0,0,0.0,0.0,0.0,0.0
0,0,0,0,26683,26557,0,0,0.0,0.0,0.0,0.0
0,0,0,0,0,0,0,0,0.0,0.0,0.0,0.0
0,0,0,0,0,0,0,0,0.0,0.0,0.0,0.0
26691,26557,0,0,1,0,0,0,3.336375,3.3196250000000003,0.0,4.706517638472207
0,0,0,0,0,0,0,0,0.0,0.0,0.0,0.0
0,0,0,0,26748,26557,0,0,0.0,0.0,0.0,0.0
0,0,0,0,0,0,0,0,0.0,0.0,0.0,0.0
0,0,0,0,0,0,0,0,0.0,0.0,0.0,0.0
26756,26557,0,0,1,0,0,0,3.3445,3.3196250000000003,0.0,4.712280805578653
0,0,0,0,0,0,0,0,0.0,0.0,0.0,0.0
0,0,0,0,26813,26557,0,0,0.0,0.0,0.0,0.0
0,0,0,0,0,0,0,0,0.0,0.0,0.0,0.0
0,0,0,0,0,0,0,0,0.0,0.0,0.0,0.0
26821,26557,0,0,1,0,0,0,3.352625,3.3196250000000003,0.0,4.718050925037796
0,0,0,0,0,0,0,0,0.0,0.0,0.0,0.0
0,0,0,0,26877,26557,0,0,0.0,0.0,0.0,0.0
0,0,0,0,0,0,0,0,0.0,0.0,0.0,0.0
0,0,0,0,0,0,0,0,0.0,0.0,0.0,0.0
26885,26557,0,0,1,0,0,0,3.360625,3.3196250000000003,0.0,4.7237390414003615
0,0,0,0,0,0,0,0,0.0,0.0,0.0,0.0
0,0,0,0,26942,26557,0,0,0.0,0.0,0.0,0.0
0,0,0,0,0,0,0,0,0.0,0.0,0.0,0.0
0,0,0,0,0,0,0,0,0.0,0.0,0.0,0.0
26950,26557,0,0,1,0,0,0,3.36875,3.3196250000000003,0.0,4.729522883243615
0,0,0,0,0,0,0,0,0.0,0.0,0.0,0.0
0,0,0,0,27006,26557,0,0,0.0,0.0,0.0,0.0
0,0,0,0,0,0,0,0,0.0,0.0,0.0,0.0
0,0,0,0,0,0,0,0,0.0,0.0,0.0,0.0
27014,26557,0,0,1,0,0,0,3.37675,3.3196250000000003,0.0,4.735224461746771
0,0,0,0,0,0,0,0,0.0,0.0,0.0,0.0
0,0,0,0,27071,26557,0,0,0.0,0.0,0.0,0.0
0,0,0,0,0,0,0,0,0.0,0.0,0.0,0.0
0,0,0,0,0,0,0,0,0.0,0.0,0.0,0.0
27079,26557,0,0,1,0,0,0,3.384875,3.3196250000000003,0.0,4.741021926362501
0,0,0,0,0,0,0,0,0.0,0.0,0.0,0.0
0,0,0,0,27135,26557,0,0,0.0,0.0,0.0,0.0
0,0,0,0,0,0,0,0,0.0,0.0,0.0,0.0
0,0,0,0,0,0,0,0,0.0,0.0,0.0,0.0
27143,26557,0,0,1,0,0,0,3.392875,3.3196250000000003,0.0,4.746736869287154
0,0,0,0,0,0,0,0,0.0,0.0,0.0,0.0
0,0,0,0,27200,26557,0,0,0.0,0.0,0.0,0.0
0,0,0,0,0,0,0,0,0.0,0.0,0.0,0.0
0,0,0,0,0,0,0,0,0.0,0.0,0.0,0.0
27208,26557,0,0,1,0,0,0,3.4010000000000002,3.3196250000000003,0.0,4.752547857794281
0,0,0,0,0,0,0,0,0.0,0.0,0.0,0.0
0,0,0,0,27264,26557,0,0,0.0,0.0,0.0,0.0
0,0,0,0,0,0,0,0,0.0,0.0,0.0,0.0
0,0,0,0,0,0,0,0,0.0,0.0,0.0,0.0
27272,26557,0,0,1,0,0,0,3.4090000000000003,3.3196250000000003,0.0,4.75827606813907
0,0,0,0,0,0,0,0,0.0,0.0,0.0,0.0
0,0,0,0,27329,26557,0,0,0.0,0.0,0.0,0.0
0,0,0,0,0,0,0,0,0.0,0.0,0.0,0.0
0,0,0,0,0,0,0,0,0.0,0.0,0.0,0.0
27337,26557,0,0,1,0,0,0,3.417125,3.3196250000000003,0.0,4.764100482383847
0,0,0,0,0,0,0,0,0.0,0.0,0.0,0.0
0,0,0,0,27393,26557,0,0,0.0,0.0,0.0,0.0
0,0,0,0,0,0,0,0,0.0,0.0,0.0,0.0
0,0,0,0,0,0,0,0,0.0,0.0,0.0,0.0
27401,26557,0,0,1,0,0,0,3.425125,3.3196250000000003,0.0,4.769841863861946
0,0,0,0,0,0,0,0,0.0,0.0,0.0,0.0
0,0,0,0,27458,26557,0,0,0.0,0.0,0.0,0.0
0,0,0,0,0,0,0,0,0.0,0.0,0.0,0.0
0,0,0,0,0,0,0,0,0.0,0.0,0.0,0.0
27466,26557,0,0,1,0,0,0,3.43325,3.3196250000000003,0.0,4.7756796064146725
0,0,0,0,0,0,0,0,0.0,0.0,0.0,0.0
0,0,0,0,27522,26557,0,0,0.0,0.0,0.0,0.0
0,0,0,0,0,0,0,0,0.0,0.0,0.0,0.0
0,0,0,0,0,0,0,0,0.0,0.0,0.0,0.0
27530,26557,0,0,1,0,0,0,3.44125,3.3196250000000003,0.0,4.781434063450526
0,0,0,0,0,0,0,0,0.0,0.0,0.0,0.0
0,0,0,0,27587,26557,0,0,0.0,0.0,0.0,0.0
0,0,0,0,0,0,0,0,0.0,0.0,0.0,0.0
0,0,0,0,0,0,0,0,0.0,0.0,0.0,0.0
27595,26557,0,0,1,0,0,0,3.449375,3.3196250000000003,0.0,4.787285037602211
0,0,0,0,0,0,0,0,0.0,0.0,0.0,0.0
0,0,0,0,27652,26557,0,0,0.0,0.0,0.0,0.0
0,0,0,0,0,0,0,0,0.0,0.0,0.0,0.0
0,0,0,0,0,0,0,0,0.0,0.0,0.0,0.0
27660,26557,0,0,1,0,0,0,3.4575,3.3196250000000003,0.0,4.793142642424175
0,0,0,0,0,0,0,0,0.0,0.0,0.0,0.0
0,0,0,0,27717,26557,0,0,0.0,0.0,0.0,0.0
0,0,0,0,0,0,0,0,0.0,0.0,0.0,0.0
0,0,0,0,0,0,0,0,0.0,0.0,0.0,0.0
27725,26557,0,0,1,0,0,0,3.465625,3.3196250000000003,0.0,4.79900685363649
0,0,0,0,0,0,0,0,0.0,0.0,0.0,0.0
0,0,0,0,27782,26557,0,0,0.0,0.0,0.0,0.0
0,0,0,0,0,0,0,0,0.0,0.0,0.0,0.0
0,0,0,0,0,0,0,0,0.0,0.0,0.0,0.0
27790,26557,0,0,1,0,0,0,3.47375,3.3196250000000003,0.0,4.804877647050443
0,0,0,0,0,0,0,0,0.0,0.0,0.0,0.0
0,0,0,0,27847,26557,0,0,0.0,0.0,0.0,0.0
0,0,0,0,0,0,0,0,0.0,0.0,0.0,0.0
0,0,0,0,0,0,0,0,0.0,0.0,0.0,0.0
27855,26557,0,0,1,0,0,0,3.481875,3.3196250000000003,0.0,4.810754998568313
0,0,0,0,0,0,0,0,0.0,0.0,0.0,0.0
0,0,0,0,27911,26557,0,0,0.0,0.0,0.0,0.0
0,0,0,0,0,0,0,0,0.0,0.0,0.0,0.0
0,0,0,0,0,0,0,0,0.0,0.0,0.0,0.0
27919,26557,0,0,1,0,0,0,3.489875,3.3196250000000003,0.0,4.816548313496917
0,0,0,0,0,0,0,0,0.0,0.0,0.0,0.0
0,0,0,0,27976,26557,0,0,0.0,0.0,0.0,0.0
0,0,0,0,0,0,0,0,0.0,0.0,0.0,0.0
0,0,0,0,0,0,0,0,0.0,0.0,0.0,0.0
27984,26557,0,0,1,0,0,0,3.498,3.3196250000000003,0.0,4.822438609316349
0,0,0,0,0,0,0,0,0.0,0.0,0.0,0.0
0,0,0,0,28040,26557,0,0,0.0,0.0,0.0,0.0
0,0,0,0,0,0,0,0,0.0,0.0,0.0,0.0
0,0,0,0,0,0,0,0,0.0,0.0,0.0,0.0
28048,26557,0,0,1,0,0,0,3.5060000000000002,3.3196250000000003,0.0,4.8282446231135605
0,0,0,0,0,0,0,0,0.0,0.0,0.0,0.0
0,0,0,0,28105,26557,0,0,0.0,0.0,0.0,0.0
0,0,0,0,0,0,0,0,0.0,0.0,0.0,0.0
0,0,0,0,0,0,0,0,0.0,0.0,0.0,0.0
28113,26557,0,0,1,0,0,0,3.514125,3.3196250000000003,0.0,4.8341477693850035
0,0,0,0,0,0,0,0,0.0,0.0,0.0,0.0
0,0,0,0,28169,26557,0,0,0.0,0.0,0.0,0.0
0,0,0,0,0,0,0,0,0.0,0.0,0.0,0.0
0,0,0,0,0,0,0,0,0.0,0.0,0.0,0.0
28177,26557,0,0,1,0,0,0,3.522125,3.3196250000000003,0.0,4.8399663899917735
0,0,0,0,0,0,0,0,0.0,0.0,0.0,0.0
0,0,0,0,28234,26557,0,0,0.0,0.0,0.0,0.0
0,0,0,0,0,0,0,0,0.0,0.0,0.0,0.0
0,0,0,0,0,0,0,0,0.0,0.0,0.0,0.0
28242,26557,0,0,1,0,0,0,3.53025,3.3196250000000003,0.0,4.845882293568943
0,0,0,0,0,0,0,0,0.0,0.0,0.0,0.0
0,0,0,0,28298,26557,0,0,0.0,0.0,0.0,0.0
0,0,0,0,0,0,0,0,0.0,0.0,0.0,0.0
0,0,0,0,0,0,0,0,0.0,0.0,0.0,0.0
28306,26557,0,0,1,0,0,0,3.53825,3.3196250000000003,0.0,4.851713429616902
0,0,0,0,0,0,0,0,0.0,0.0,0.0,0.0
0,0,0,0,28363,26557,0,0,0.0,0.0,0.0,0.0
0,0,0,0,0,0,0,0,0.0,0.0,0.0,0.0
0,0,0,0,0,0,0,0,0.0,0.0,0.0,0.0
28371,26557,0,0,1,0,0,0,3.5463750000000003,3.3196250000000003,0.0,4.857641998053171
0,0,0,0,0,0,0,0,0.0,0.0,0.0,0.0
0,0,0,0,28427,26557,0,0,0.0,0.0,0.0,0.0
0,0,0,0,0,0,0,0,0.0,0.0,0.0,0.0
0,0,0,0,0,0,0,0,0.0,0.0,0.0,0.0
28435,26557,0,0,1,0,0,0,3.5543750000000003,3.3196250000000003,0.0,4.863485558861052
0,0,0,0,0,0,0,0,0.0,0.0,0.0,0.0
0,0,0,0,28492,26557,0,0,0.0,0.0,0.0,0.0
0,0,0,0,0,0,0,0,0.0,0.0,0.0,0.0
0,0,0,0,0,0,0,0,0.0,0.0,0.0,0.0
28500,26557,0,0,1,0,0,0,3.5625,3.3196250000000003,0.0,4.869426700405809
0,0,0,0,0,0,0,0,0.0,0.0,0.0,0.0
0,0,0,0,28556,26557,0,0,0.0,0.0,0.0,0.0
0,0,0,0,0,0,0,0,0.0,0.0,0.0,0.0
0,0,0,0,0,0,0,0,0.0,0.0,0.0,0.0
28564,26557,0,0,1,0,0,0,3.5705,3.3196250000000003,0.0,4.875282595975849
0,0,0,0,0,0,0,0,0.0,0.0,0.0,0.0
0,0,0,0,28621,26557,0,0,0.0,0.0,0.0,0.0
0,0,0,0,0,0,0,0,0.0,0.0,0.0,0.0
0,0,0,0,0,0,0,0,0.0,0.0,0.0,0.0
28629,26557,0,0,1,0,0,0,3.578625,3.3196250000000003,0.0,4.881236219570817
0,0,0,0,0,0,0,0,0.0,0.0,0.0,0.0
0,0,0,0,28685,26557,0,0,0.0,0.0,0.0,0.0
0,0,0,0,0,0,0,0,0.0,0.0,0.0,0.0
0,0,0,0,0,0,0,0,0.0,0.0,0.0,0.0
28694,26557,0,0,1,0,0,0,3.58675,3.3196250000000003,0.0,4.8871960982883635
0,0,0,0,0,0,0,0,0.0,0.0,0.0,0.0
0,0,0,0,28750,26557,0,0,0.0,0.0,0.0,0.0
0,0,0,0,0,0,0,0,0.0,0.0,0.0,0.0
0,0,0,0,0,0,0,0,0.0,0.0,0.0,0.0
28758,26557,0,0,1,0,0,0,3.59475,3.3196250000000003,0.0,4.893070375860642
0,0,0,0,0,0,0,0,0.0,0.0,0.0,0.0
0,0,0,0,28815,26557,0,0,0.0,0.0,0.0,0.0
0,0,0,0,0,0,0,0,0.0,0.0,0.0,0.0
0,0,0,0,0,0,0,0,0.0,0.0,0.0,0.0
28823,26557,0,0,1,0,0,0,3.602875,3.3196250000000003,0.0,4.89904260098338
0,0,0,0,0,0,0,0,0.0,0.0,0.0,0.0
0,0,0,0,28879,26557,0,0,0.0,0.0,0.0,0.0
0,0,0,0,0,0,0,0,0.0,0.0,0.0,0.0
0,0,0,0,0,0,0,0,0.0,0.0,0.0,0.0
28887,26557,0,0,1,0,0,0,3.610875,3.3196250000000003,0.0,4.904928990948799
0,0,0,0,0,0,0,0,0.0,0.0,0.0,0.0
0,0,0,0,28944,26557,0,0,0.0,0.0,0.0,0.0
0,0,0,0,0,0,0,0,0.0,0.0,0.0,0.0
0,0,0,0,0,0,0,0,0.0,0.0,0.0,0.0
28952,26557,0,0,1,0,0,0,3.619,3.3196250000000003,0.0,4.910913473135625
0,0,0,0,0,0,0,0,0.0,0.0,0.0,0.0
0,0,0,0,29008,26557,0,0,0.0,0.0,0.0,0.0
0,0,0,0,0,0,0,0,0.0,0.0,0.0,0.0
0,0,0,0,0,0,0,0,0.0,0.0,0.0,0.0
29016,26557,0,0,1,0,0,0,3.6270000000000002,3.3196250000000003,0.0,4.916811887862399
0,0,0,0,0,0,0,0,0.0,0.0,0.0,0.0
0,0,0,0,29073,26557,0,0,0.0,0.0,0.0,0.0
0,0,0,0,0,0,0,0,0.0,0.0,0.0,0.0
0,0,0,0,0,0,0,0,0.0,0.0,0.0,0.0
29081,26557,0,0,1,0,0,0,3.635125,3.3196250000000003,0.0,4.922808538451399
0,0,0,0,0,0,0,0,0.0,0.0,0.0,0.0
0,0,0,0,29137,26557,0,0,0.0,0.0,0.0,0.0
0,0,0,0,0,0,0,0,0.0,0.0,0.0,0.0
0,0,0,0,0,0,0,0,0.0,0.0,0.0,0.0
29145,26557,0,0,1,0,0,0,3.643125,3.3196250000000003,0.0,4.928718890974611
0,0,0,0,0,0,0,0,0.0,0.0,0.0,0.0
0,0,0,0,29202,26557,0,0,0.0,0.0,0.0,0.0
0,0,0,0,0,0,0,0,0.0,0.0,0.0,0.0
0,0,0,0,0,0,0,0,0.0,0.0,0.0,0.0
29210,26557,0,0,1,0,0,0,3.65125,3.3196250000000003,0.0,4.934727621979252
0,0,0,0,0,0,0,0,0.0,0.0,0.0,0.0
0,0,0,0,29266,26557,0,0,0.0,0.0,0.0,0.0
0,0,0,0,0,0,0,0,0.0,0.0,0.0,0.0
0,0,0,0,0,0,0,0,0.0,0.0,0.0,0.0
29274,26557,0,0,1,0,0,0,3.65925,3.3196250000000003,0.0,4.940649825997083
0,0,0,0,0,0,0,0,0.0,0.0,0.0,0.0
0,0,0,0,29331,26557,0,0,0.0,0.0,0.0,0.0
0,0,0,0,0,0,0,0,0.0,0.0,0.0,0.0
0,0,0,0,0,0,0,0,0.0,0.0,0.0,0.0
29339,26557,0,0,1,0,0,0,3.6673750000000003,3.3196250000000003,0.0,4.946670550102362
0,0,0,0,0,0,0,0,0.0,0.0,0.0,0.0
0,0,0,0,29395,26557,0,0,0.0,0.0,0.0,0.0
0,0,0,0,0,0,0,0,0.0,0.0,0.0,0.0
0,0,0,0,0,0,0,0,0.0,0.0,0.0,0.0
29403,26557,0,0,1,0,0,0,3.6753750000000003,3.3196250000000003,0.0,4.952604519972295
0,0,0,0,0,0,0,0,0.0,0.0,0.0,0.0
0,0,0,0,29460,26557,0,0,0.0,0.0,0.0,0.0
0,0,0,0,0,0,0,0,0.0,0.0,0.0,0.0
0,0,0,0,0,0,0,0,0.0,0.0,0.0,0.0
29468,26557,0,0,1,0,0,0,3.6835,3.3196250000000003,0.0,4.95863715053088
0,0,0,0,0,0,0,0,0.0,0.0,0.0,0.0
0,0,0,0,29524,26557,0,0,0.0,0.0,0.0,0.0
0,0,0,0,0,0,0,0,0.0,0.0,0.0,0.0
0,0,0,0,0,0,0,0,0.0,0.0,0.0,0.0
29532,26557,0,0,1,0,0,0,3.6915,3.3196250000000003,0.0,4.964582801265883
0,0,0,0,0,0,0,0,0.0,0.0,0.0,0.0
0,0,0,0,29589,26557,0,0,0.0,0.0,0.0,0.0
0,0,0,0,0,0,0,0,0.0,0.0,0.0,0.0
0,0,0,0,0,0,0,0,0.0,0.0,0.0,0.0
29597,26557,0,0,1,0,0,0,3.699625,3.3196250000000003,0.0,4.970627252294221
0,0,0,0,0,0,0,0,0.0,0.0,0.0,0.0
0,0,0,0,29653,26557,0,0,0.0,0.0,0.0,0.0
0,0,0,0,0,0,0,0,0.0,0.0,0.0,0.0
0,0,0,0,0,0,0,0,0.0,0.0,0.0,0.0
29661,26557,0,0,1,0,0,0,3.707625,3.3196250000000003,0.0,4.97658449955891
0,0,0,0,0,0,0,0,0.0,0.0,0.0,0.0
0,0,0,0,29718,26557,0,0,0.0,0.0,0.0,0.0
0,0,0,0,0,0,0,0,0.0,0.0,0.0,0.0
0,0,0,0,0,0,0,0,0.0,0.0,0.0,0.0
29726,26557,0,0,1,0,0,0,3.71575,3.3196250000000003,0.0,4.982640685733319
0,0,0,0,0,0,0,0,0.0,0.0,0.0,0.0
0,0,0,0,29782,26557,0,0,0.0,0.0,0.0,0.0
0,0,0,0,0,0,0,0,0.0,0.0,0.0,0.0
0,0,0,0,0,0,0,0,0.0,0.0,0.0,0.0
29790,26557,0,0,1,0,0,0,3.72375,3.3196250000000003,0.0,4.988609445840093
0,0,0,0,0,0,0,0,0.0,0.0,0.0,0.0
0,0,0,0,29847,26557,0,0,0.0,0.0,0.0,0.0
0,0,0,0,0,0,0,0,0.0,0.0,0.0,0.0
0,0,0,0,0,0,0,0,0.0,0.0,0.0,0.0
29855,26557,0,0,1,0,0,0,3.731875,3.3196250000000003,0.0,4.994677282492835
0,0,0,0,0,0,0,0,0.0,0.0,0.0,0.0
0,0,0,0,29911,26557,0,0,0.0,0.0,0.0,0.0
0,0,0,0,0,0,0,0,0.0,0.0,0.0,0.0
0,0,0,0,0,0,0,0,0.0,0.0,0.0,0.0
29919,26557,0,0,1,0,0,0,3.739875,3.3196250000000003,0.0,5.000657472398005
0,0,0,0,0,0,0,0,0.0,0.0,0.0,0.0
0,0,0,0,29976,26557,0,0,0.0,0.0,0.0,0.0
0,0,0,0,0,0,0,0,0.0,0.0,0.0,0.0
0,0,0,0,0,0,0,0,0.0,0.0,0.0,0.0
29984,26557,0,0,1,0,0,0,3.748,3.3196250000000003,0.0,5.006736875513332
0,0,0,0,0,0,0,0,0.0,0.0,0.0,0.0
0,0,0,0,30041,26557,0,0,0.0,0.0,0.0,0.0
0,0,0,0,0,0,0,0,0.0,0.0,0.0,0.0
0,0,0,0,0,0,0,0,0.0,0.0,0.0,0.0
30049,26557,0,0,1,0,0,0,3.756125,3.3196250000000003,0.0,5.012822075064106
0,0,0,0,0,0,0,0,0.0,0.0,0.0,0.0
0,0,0,0,30105,26557,0,0,0.0,0.0,0.0,0.0
0,0,0,0,0,0,0,0,0.0,0.0,0.0,0.0
0,0,0,0,0,0,0,0,0.0,0.0,0.0,0.0
30113,26557,0,0,1,0,0,0,3.764125,3.3196250000000003,0.0,5.018819299023427
0,0,0,0,0,0,0,0,0.0,0.0,0.0,0.0
0,0,0,0,30170,26557,0,0,0.0,0.0,0.0,0.0
0,0,0,0,0,0,0,0,0.0,0.0,0.0,0.0
0,0,0,0,0,0,0,0,0.0,0.0,0.0,0.0
30178,26557,0,0,1,0,0,0,3.77225,3.3196250000000003,0.0,5.024915939906359
0,0,0,0,0,0,0,0,0.0,0.0,0.0,0.0
0,0,0,0,30234,26557,0,0,0.0,0.0,0.0,0.0
0,0,0,0,0,0,0,0,0.0,0.0,0.0,0.0
0,0,0,0,0,0,0,0,0.0,0.0,0.0,0.0
30242,26557,0,0,1,0,0,0,3.78025,3.3196250000000003,0.0,5.0309243885318935
0,0,0,0,0,0,0,0,0.0,0.0,0.0,0.0
0,0,0,0,30299,26557,0,0,0.0,0.0,0.0,0.0
0,0,0,0,0,0,0,0,0.0,0.0,0.0,0.0
0,0,0,0,0,0,0,0,0.0,0.0,0.0,0.0
30307,26557,0,0,1,0,0,0,3.7883750000000003,3.3196250000000003,0.0,5.037032388346337
0,0,0,0,0,0,0,0,0.0,0.0,0.0,0.0
0,0,0,0,30363,26557,0,0,0.0,0.0,0.0,0.0
0,0,0,0,0,0,0,0,0.0,0.0,0.0,0.0
0,0,0,0,0,0,0,0,0.0,0.0,0.0,0.0
30371,26557,0,0,1,0,0,0,3.7963750000000003,3.3196250000000003,0.0,5.04305198081975
0,0,0,0,0,0,0,0,0.0,0.0,0.0,0.0
0,0,0,0,30428,26557,0,0,0.0,0.0,0.0,0.0
0,0,0,0,0,0,0,0,0.0,0.0,0.0,0.0
0,0,0,0,0,0,0,0,0.0,0.0,0.0,0.0
30436,26557,0,0,1,0,0,0,3.8045,3.3196250000000003,0.0,5.049171257803106
0,0,0,0,0,0,0,0,0.0,0.0,0.0,0.0
0,0,0,0,30493,26557,0,0,0.0,0.0,0.0,0.0
0,0,0,0,0,0,0,0,0.0,0.0,0.0,0.0
0,0,0,0,0,0,0,0,0.0,0.0,0.0,0.0
30501,26557,0,0,1,0,0,0,3.812625,3.3196250000000003,0.0,5.055296186303035
0,0,0,0,0,0,0,0,0.0,0.0,0.0,0.0
0,0,0,0,30557,26557,0,0,0.0,0.0,0.0,0.0
0,0,0,0,0,0,0,0,0.0,0.0,0.0,0.0
0,0,0,0,0,0,0,0,0.0,0.0,0.0,0.0
30565,26557,0,0,1,0,0,0,3.820625,3.3196250000000003,0.0,5.061332386956028
0,0,0,0,0,0,0,0,0.0,0.0,0.0,0.0
0,0,0,0,30622,26557,0,0,0.0,0.0,0.0,0.0
0,0,0,0,0,0,0,0,0.0,0.0,0.0,0.0
0,0,0,0,0,0,0,0,0.0,0.0,0.0,0.0
30630,26557,0,0,1,0,0,0,3.82875,3.3196250000000003,0.0,5.067468470856528
0,0,0,0,0,0,0,0,0.0,0.0,0.0,0.0
